
# Total neutron yield = 0.0  n/decay
	 be9 0.0
# Integral of spectrum = 6.634025892916597e-05  n/decay
100 0.0
200 0.0
300 0.0
400 0.0
500 0.0
600 0.0
700 0.0
800 0.0
900 0.0
1000 0.0
1100 0.0
1200 0.0
1300 0.0
1400 0.0
1500 0.0
1600 0.0
1700 7.611699488426513e-10
1800 7.792721236053155e-09
1900 1.084913829520302e-08
2000 1.239168741504381e-08
2100 1.4427179097689579e-08
2200 1.6013403134563633e-08
2300 1.7434662525175553e-08
2400 1.904178221945654e-08
2500 2.0832344081627792e-08
2600 2.303068132973313e-08
2700 2.824603903733689e-08
2800 3.035957413407951e-08
2900 3.4112563315812865e-08
3000 3.292140572659906e-08
3100 2.9065417312497413e-08
3200 2.601322124092293e-08
3300 2.381327928354753e-08
3400 2.2207382333221843e-08
3500 2.09149846657924e-08
3600 1.9868773743249456e-08
3700 1.8902687438674886e-08
3800 1.8037631222380828e-08
3900 1.7378439337267873e-08
4000 1.6896590689325703e-08
4100 1.6527819450186983e-08
4200 1.620682148121345e-08
4300 1.5836661413473733e-08
4400 1.5508126946555066e-08
4500 1.508646809520921e-08
4600 1.4693513343287587e-08
4700 1.4261352214006733e-08
4800 1.3705248915404044e-08
4900 1.3177526366374706e-08
5000 1.1734571950048094e-08
5100 9.987712861304331e-09
5200 8.436526417915881e-09
5300 7.034649094206886e-09
5400 5.2995905345675706e-09
5500 3.2695291173966734e-09
5600 1.3237123264105703e-09
5700 0.0
5800 0.0
5900 0.0
6000 0.0
6100 0.0
6200 0.0
6300 0.0
6400 0.0
6500 0.0
6600 0.0
6700 0.0
6800 0.0
6900 0.0
7000 0.0
7100 0.0
7200 0.0
7300 0.0
7400 0.0
7500 0.0
7600 0.0
7700 0.0
7800 0.0
7900 0.0
8000 0.0
8100 0.0
8200 0.0
8300 0.0
8400 0.0
8500 0.0
8600 0.0
8700 0.0
8800 0.0
8900 0.0
9000 0.0
9100 0.0
9200 0.0
9300 0.0
9400 0.0
9500 0.0
9600 0.0
9700 0.0
9800 0.0
9900 0.0
10000 0.0
10100 0.0
10200 0.0
10300 0.0
10400 0.0
10500 0.0
10600 0.0
10700 0.0
10800 0.0
10900 0.0
11000 0.0
11100 0.0
11200 0.0
11300 0.0
11400 0.0
11500 0.0
11600 0.0
11700 0.0
11800 0.0
11900 0.0
12000 0.0
12100 0.0
12200 0.0
12300 0.0
12400 0.0
12500 0.0
12600 0.0
12700 0.0
12800 0.0
12900 0.0
13000 0.0
13100 0.0
13200 0.0
13300 0.0
13400 0.0
13500 0.0
13600 0.0
13700 0.0
13800 0.0
13900 0.0
14000 0.0
14100 0.0
14200 0.0
14300 0.0
14400 0.0
14500 0.0
14600 0.0
14700 0.0
14800 0.0
14900 0.0
15000 0.0
