
# Total neutron yield = 0.0  n/decay
	 b10 0.0
	 b11 0.0
# Integral of spectrum = 6.902351929853302e-07  n/decay
100 0.0
200 0.0
300 0.0
400 0.0
500 0.0
600 0.0
700 0.0
800 0.0
900 0.0
1000 0.0
1100 0.0
1200 0.0
1300 0.0
1400 1.9467400517257426e-14
1500 1.0031670886154347e-12
1600 9.645062879011925e-12
1700 1.292163807177339e-11
1800 1.603067055548393e-11
1900 2.2022557350058413e-11
2000 2.5421764365709427e-11
2100 3.151071720170757e-11
2200 5.600586820132274e-11
2300 8.65947570338104e-11
2400 1.200955553090826e-10
2500 1.6543718980028364e-10
2600 2.1322832982413926e-10
2700 2.706094890729067e-10
2800 3.2131643356808767e-10
2900 3.6547452810162023e-10
3000 3.8345928976427884e-10
3100 3.816172514036363e-10
3200 3.7466521773822254e-10
3300 3.6521811632468615e-10
3400 3.5411969984684825e-10
3500 3.416625091373674e-10
3600 3.2785135954768794e-10
3700 3.123700187919337e-10
3800 2.9477261073761784e-10
3900 2.7432267176155964e-10
4000 2.518743507399675e-10
4100 2.329457847746967e-10
4200 2.1426553771456222e-10
4300 1.9439376541041893e-10
4400 1.730296850429425e-10
4500 1.514509923003321e-10
4600 1.310908669244189e-10
4700 1.1279931666566453e-10
4800 9.343906702012017e-11
4900 7.367102550048057e-11
5000 5.5739824751257396e-11
5100 4.1462249514058065e-11
5200 2.7293227055389773e-11
5300 1.5151234840793694e-11
5400 5.489148824197337e-12
5500 8.599118960325181e-13
5600 0.0
5700 0.0
5800 0.0
5900 0.0
6000 0.0
6100 0.0
6200 0.0
6300 0.0
6400 0.0
6500 0.0
6600 0.0
6700 0.0
6800 0.0
6900 0.0
7000 0.0
7100 0.0
7200 0.0
7300 0.0
7400 0.0
7500 0.0
7600 0.0
7700 0.0
7800 0.0
7900 0.0
8000 0.0
8100 0.0
8200 0.0
8300 0.0
8400 0.0
8500 0.0
8600 0.0
8700 0.0
8800 0.0
8900 0.0
9000 0.0
9100 0.0
9200 0.0
9300 0.0
9400 0.0
9500 0.0
9600 0.0
9700 0.0
9800 0.0
9900 0.0
10000 0.0
10100 0.0
10200 0.0
10300 0.0
10400 0.0
10500 0.0
10600 0.0
10700 0.0
10800 0.0
10900 0.0
11000 0.0
11100 0.0
11200 0.0
11300 0.0
11400 0.0
11500 0.0
11600 0.0
11700 0.0
11800 0.0
11900 0.0
12000 0.0
12100 0.0
12200 0.0
12300 0.0
12400 0.0
12500 0.0
12600 0.0
12700 0.0
12800 0.0
12900 0.0
13000 0.0
13100 0.0
13200 0.0
13300 0.0
13400 0.0
13500 0.0
13600 0.0
13700 0.0
13800 0.0
13900 0.0
14000 0.0
14100 0.0
14200 0.0
14300 0.0
14400 0.0
14500 0.0
14600 0.0
14700 0.0
14800 0.0
14900 0.0
15000 0.0
