
# Total neutron yield = 0.0  n/decay
	 na23 0.0
# Integral of spectrum = 8.20666461560784e-06  n/decay
100 0.0
200 0.0
300 0.0
400 0.0
500 0.0
600 0.0
700 0.0
800 0.0
900 0.0
1000 0.0
1100 0.0
1200 0.0
1300 0.0
1400 0.0
1500 0.0
1600 0.0
1700 0.0
1800 0.0
1900 0.0
2000 0.0
2100 0.0
2200 0.0
2300 0.0
2400 0.0
2500 0.0
2600 0.0
2700 0.0
2800 0.0
2900 0.0
3000 0.0
3100 0.0
3200 0.0
3300 0.0
3400 0.0
3500 0.0
3600 0.0
3700 0.0
3800 0.0
3900 0.0
4000 0.0
4100 0.0
4200 0.0
4300 0.0
4400 0.0
4500 0.0
4600 0.0
4700 0.0
4800 0.0
4900 0.0
5000 0.0
5100 0.0
5200 0.0
5300 0.0
5400 0.0
5500 0.0
5600 0.0
5700 0.0
5800 7.73751600454447e-12
5900 3.088592466156774e-11
6000 6.63387576192352e-11
6100 1.1921817094820822e-10
6200 1.907626036923719e-10
6300 2.7558642419961e-10
6400 3.8482697021566625e-10
6500 5.1990247935202e-10
6600 6.738501515273835e-10
6700 8.282188202602912e-10
6800 1.008757307338771e-09
6900 1.2047704465179972e-09
7000 1.443509175419099e-09
7100 1.6748089677588922e-09
7200 1.866554471180181e-09
7300 2.067010602814685e-09
7400 2.262048084263294e-09
7500 2.387233416673958e-09
7600 2.4656759704987686e-09
7700 2.553426071823049e-09
7800 2.6390444465025375e-09
7900 2.7059963339520526e-09
8000 2.7844967961361234e-09
8100 2.8480316278520987e-09
8200 2.9105766866452975e-09
8300 2.9573585479302665e-09
8400 3.0144758526740553e-09
8500 3.0708638836004647e-09
8600 3.107162800199514e-09
8700 2.9462625726017773e-09
8800 2.768362642902615e-09
8900 2.594771455530249e-09
9000 2.4017527497986005e-09
9100 2.24016266433172e-09
9200 2.0999684251857517e-09
9300 1.9465980041402438e-09
9400 1.8019234221150494e-09
9500 1.6553412104793152e-09
9600 1.5328843929932055e-09
9700 1.4492972801223742e-09
9800 1.365621077263699e-09
9900 1.2738380685834347e-09
10000 1.1884401579235384e-09
10100 1.0935007841626966e-09
10200 1.0053413549006687e-09
10300 9.156483975138804e-10
10400 8.149789341021817e-10
10500 7.211950427213061e-10
10600 6.255496609536921e-10
10700 5.185552526967003e-10
10800 4.1971283539445514e-10
10900 3.0882672818773064e-10
11000 2.0611884109734283e-10
11100 1.0286489211421653e-10
11200 0.0
11300 0.0
11400 0.0
11500 0.0
11600 0.0
11700 0.0
11800 0.0
11900 0.0
12000 0.0
12100 0.0
12200 0.0
12300 0.0
12400 0.0
12500 0.0
12600 0.0
12700 0.0
12800 0.0
12900 0.0
13000 0.0
13100 0.0
13200 0.0
13300 0.0
13400 0.0
13500 0.0
13600 0.0
13700 0.0
13800 0.0
13900 0.0
14000 0.0
14100 0.0
14200 0.0
14300 0.0
14400 0.0
14500 0.0
14600 0.0
14700 0.0
14800 0.0
14900 0.0
15000 0.0
