
# Total neutron yield = 0.0  n/decay
	 na23 0.0
# Integral of spectrum = 1.7304185455485237e-06  n/decay
100 0.0
200 0.0
300 0.0
400 0.0
500 0.0
600 0.0
700 0.0
800 0.0
900 0.0
1000 0.0
1100 0.0
1200 0.0
1300 0.0
1400 0.0
1500 0.0
1600 0.0
1700 0.0
1800 0.0
1900 0.0
2000 0.0
2100 0.0
2200 0.0
2300 0.0
2400 0.0
2500 0.0
2600 0.0
2700 0.0
2800 0.0
2900 0.0
3000 0.0
3100 0.0
3200 0.0
3300 0.0
3400 0.0
3500 0.0
3600 0.0
3700 0.0
3800 0.0
3900 0.0
4000 0.0
4100 0.0
4200 0.0
4300 0.0
4400 0.0
4500 0.0
4600 0.0
4700 0.0
4800 0.0
4900 0.0
5000 0.0
5100 0.0
5200 0.0
5300 0.0
5400 0.0
5500 0.0
5600 0.0
5700 1.0438146878826395e-13
5800 4.955483053546954e-12
5900 1.9067494854032284e-11
6000 4.499010733501373e-11
6100 8.160207391280498e-11
6200 1.341601688630601e-10
6300 1.9871436530854267e-10
6400 2.664673178996886e-10
6500 3.322140995516351e-10
6600 3.9879900655748304e-10
6700 4.713020612313332e-10
6800 5.454441023244098e-10
6900 6.098150225236618e-10
7000 6.583835958131112e-10
7100 6.98975480382958e-10
7200 7.377865659504623e-10
7300 7.499789225971654e-10
7400 7.484719464056392e-10
7500 7.421177093226795e-10
7600 7.273699713695587e-10
7700 7.10547641691715e-10
7800 6.881755349916924e-10
7900 6.610272200864736e-10
8000 6.340036536505591e-10
8100 6.041421550163743e-10
8200 5.758438107850051e-10
8300 5.49761213612229e-10
8400 5.220603995003789e-10
8500 4.738057723824878e-10
8600 4.2838866709215417e-10
8700 3.8012075841804045e-10
8800 3.359706443481788e-10
8900 3.0243582424902155e-10
9000 2.700877144914254e-10
9100 2.413018123897585e-10
9200 2.1361946129400581e-10
9300 1.847240088269973e-10
9400 1.7047229664448926e-10
9500 1.5682353924767262e-10
9600 1.4487974903390554e-10
9700 1.3335395613016017e-10
9800 1.2103427218568388e-10
9900 1.1021550670795377e-10
10000 9.967937528141576e-11
10100 8.827094927838161e-11
10200 7.812358281481347e-11
10300 6.701316184392065e-11
10400 5.70077495724259e-11
10500 4.6996547110437604e-11
10600 3.598836226365046e-11
10700 2.5985698046164743e-11
10800 1.608242728673541e-11
10900 5.522112485355188e-12
11000 0.0
11100 0.0
11200 0.0
11300 0.0
11400 0.0
11500 0.0
11600 0.0
11700 0.0
11800 0.0
11900 0.0
12000 0.0
12100 0.0
12200 0.0
12300 0.0
12400 0.0
12500 0.0
12600 0.0
12700 0.0
12800 0.0
12900 0.0
13000 0.0
13100 0.0
13200 0.0
13300 0.0
13400 0.0
13500 0.0
13600 0.0
13700 0.0
13800 0.0
13900 0.0
14000 0.0
14100 0.0
14200 0.0
14300 0.0
14400 0.0
14500 0.0
14600 0.0
14700 0.0
14800 0.0
14900 0.0
15000 0.0
