
# Total neutron yield = 0.0  n/decay
	 be9 0.0
# Integral of spectrum = 4.162142031288989e-05  n/decay
100 0.0
200 0.0
300 0.0
400 0.0
500 0.0
600 0.0
700 0.0
800 0.0
900 0.0
1000 0.0
1100 0.0
1200 0.0
1300 0.0
1400 0.0
1500 0.0
1600 0.0
1700 2.538706101323043e-10
1800 2.5990817133490633e-09
1900 3.61847884641371e-09
2000 4.132960384746198e-09
2100 4.8118514999015284e-09
2200 5.340899795436622e-09
2300 5.814927953273822e-09
2400 6.350945511459235e-09
2500 6.94814595680028e-09
2600 7.681350428727755e-09
2700 9.439188813383284e-09
2800 1.0707825492337291e-08
2900 1.2950907960257507e-08
3000 1.5476893938030126e-08
3100 1.784318915048629e-08
3200 1.8427532292716026e-08
3300 1.675481197632902e-08
3400 1.5539765967477962e-08
3500 1.4613554353603436e-08
3600 1.3895782135650158e-08
3700 1.3288211129986269e-08
3800 1.2767418003926733e-08
3900 1.2348062920340074e-08
4000 1.200829832822951e-08
4100 1.1720517695933452e-08
4200 1.1461364005631172e-08
4300 1.1200261380552296e-08
4400 1.097156404663779e-08
4500 1.0735847328547595e-08
4600 1.0540120140114432e-08
4700 1.036839042301263e-08
4800 1.0198989785827487e-08
4900 1.0088938974604969e-08
5000 9.7291681587829e-09
5100 9.328338687862477e-09
5200 8.968402674916653e-09
5300 8.444886871228942e-09
5400 7.80211984193669e-09
5500 7.0592851716258244e-09
5600 6.3584456360050466e-09
5700 5.5938384637859916e-09
5800 4.718779570171849e-09
5900 3.638008472014629e-09
6000 2.429186618498402e-09
6100 1.2437940182134225e-09
6200 0.0
6300 0.0
6400 0.0
6500 0.0
6600 0.0
6700 0.0
6800 0.0
6900 0.0
7000 0.0
7100 0.0
7200 0.0
7300 0.0
7400 0.0
7500 0.0
7600 0.0
7700 0.0
7800 0.0
7900 0.0
8000 0.0
8100 0.0
8200 0.0
8300 0.0
8400 0.0
8500 0.0
8600 0.0
8700 0.0
8800 0.0
8900 0.0
9000 0.0
9100 0.0
9200 0.0
9300 0.0
9400 0.0
9500 0.0
9600 0.0
9700 0.0
9800 0.0
9900 0.0
10000 0.0
10100 0.0
10200 0.0
10300 0.0
10400 0.0
10500 0.0
10600 0.0
10700 0.0
10800 0.0
10900 0.0
11000 0.0
11100 0.0
11200 0.0
11300 0.0
11400 0.0
11500 0.0
11600 0.0
11700 0.0
11800 0.0
11900 0.0
12000 0.0
12100 0.0
12200 0.0
12300 0.0
12400 0.0
12500 0.0
12600 0.0
12700 0.0
12800 0.0
12900 0.0
13000 0.0
13100 0.0
13200 0.0
13300 0.0
13400 0.0
13500 0.0
13600 0.0
13700 0.0
13800 0.0
13900 0.0
14000 0.0
14100 0.0
14200 0.0
14300 0.0
14400 0.0
14500 0.0
14600 0.0
14700 0.0
14800 0.0
14900 0.0
15000 0.0
