
# Total neutron yield = 0.0  n/decay
	 be9 0.0
# Integral of spectrum = 5.641681639449068e-06  n/decay
100 6.92970658921677e-10
200 8.182350165249581e-10
300 9.961303049761443e-10
400 1.99996886928372e-09
500 2.9094310869372886e-09
600 3.898010382287881e-09
700 4.439781637323578e-09
800 4.773417465613785e-09
900 4.097002853015079e-09
1000 3.6506307176942e-09
1100 3.4275118055157702e-09
1200 3.274458937572976e-09
1300 3.1212742308790832e-09
1400 2.9096417291121477e-09
1500 2.6137095447865498e-09
1600 2.3084693470887087e-09
1700 2.006128580164795e-09
1800 1.7490166015671718e-09
1900 1.515792763443193e-09
2000 1.3356344109050192e-09
2100 1.199600272252898e-09
2200 1.0444184417927271e-09
2300 8.187736286180635e-10
2400 5.187687212263726e-10
2500 2.635772662206766e-10
2600 3.446112076622139e-11
2700 0.0
2800 0.0
2900 0.0
3000 0.0
3100 0.0
3200 0.0
3300 0.0
3400 0.0
3500 0.0
3600 0.0
3700 0.0
3800 0.0
3900 0.0
4000 0.0
4100 0.0
4200 0.0
4300 0.0
4400 0.0
4500 0.0
4600 0.0
4700 0.0
4800 0.0
4900 0.0
5000 0.0
5100 0.0
5200 0.0
5300 0.0
5400 0.0
5500 0.0
5600 0.0
5700 0.0
5800 0.0
5900 0.0
6000 0.0
6100 0.0
6200 0.0
6300 0.0
6400 0.0
6500 0.0
6600 0.0
6700 0.0
6800 0.0
6900 0.0
7000 0.0
7100 0.0
7200 0.0
7300 0.0
7400 0.0
7500 0.0
7600 0.0
7700 0.0
7800 0.0
7900 0.0
8000 0.0
8100 0.0
8200 0.0
8300 0.0
8400 0.0
8500 0.0
8600 0.0
8700 0.0
8800 0.0
8900 0.0
9000 0.0
9100 0.0
9200 0.0
9300 0.0
9400 0.0
9500 0.0
9600 0.0
9700 0.0
9800 0.0
9900 0.0
10000 0.0
10100 0.0
10200 0.0
10300 0.0
10400 0.0
10500 0.0
10600 0.0
10700 0.0
10800 0.0
10900 0.0
11000 0.0
11100 0.0
11200 0.0
11300 0.0
11400 0.0
11500 0.0
11600 0.0
11700 0.0
11800 0.0
11900 0.0
12000 0.0
12100 0.0
12200 0.0
12300 0.0
12400 0.0
12500 0.0
12600 0.0
12700 0.0
12800 0.0
12900 0.0
13000 0.0
13100 0.0
13200 0.0
13300 0.0
13400 0.0
13500 0.0
13600 0.0
13700 0.0
13800 0.0
13900 0.0
14000 0.0
14100 0.0
14200 0.0
14300 0.0
14400 0.0
14500 0.0
14600 0.0
14700 0.0
14800 0.0
14900 0.0
15000 0.0
