
# Total neutron yield = 0.0  n/decay
	 li6 0.0
	 li7 0.0
# Integral of spectrum = 4.6456150164395555e-07  n/decay
100 6.276877883258233e-10
200 6.597795022132403e-10
300 5.146331057631677e-10
400 3.638340406249163e-10
500 2.848376769026216e-10
600 2.366026978209944e-10
700 2.0416516971221874e-10
800 1.8067618694006998e-10
900 1.6302269454944796e-10
1000 1.4915058490393002e-10
1100 1.3790090993276726e-10
1200 1.2823221849914284e-10
1300 1.2021489782458962e-10
1400 1.132375272664704e-10
1500 1.0705257659887922e-10
1600 9.915868949043847e-11
1700 9.059483180271338e-11
1800 8.220562328629412e-11
1900 7.45719661438417e-11
2000 6.652621043278877e-11
2100 5.862549375723652e-11
2200 5.0188136577928275e-11
2300 4.246979174249926e-11
2400 3.4765648274185036e-11
2500 2.7000964338541752e-11
2600 1.832285832703364e-11
2700 1.0157224387775052e-11
2800 0.0
2900 0.0
3000 0.0
3100 0.0
3200 0.0
3300 0.0
3400 0.0
3500 0.0
3600 0.0
3700 0.0
3800 0.0
3900 0.0
4000 0.0
4100 0.0
4200 0.0
4300 0.0
4400 0.0
4500 0.0
4600 0.0
4700 0.0
4800 0.0
4900 0.0
5000 0.0
5100 0.0
5200 0.0
5300 0.0
5400 0.0
5500 0.0
5600 0.0
5700 0.0
5800 0.0
5900 0.0
6000 0.0
6100 0.0
6200 0.0
6300 0.0
6400 0.0
6500 0.0
6600 0.0
6700 0.0
6800 0.0
6900 0.0
7000 0.0
7100 0.0
7200 0.0
7300 0.0
7400 0.0
7500 0.0
7600 0.0
7700 0.0
7800 0.0
7900 0.0
8000 0.0
8100 0.0
8200 0.0
8300 0.0
8400 0.0
8500 0.0
8600 0.0
8700 0.0
8800 0.0
8900 0.0
9000 0.0
9100 0.0
9200 0.0
9300 0.0
9400 0.0
9500 0.0
9600 0.0
9700 0.0
9800 0.0
9900 0.0
10000 0.0
10100 0.0
10200 0.0
10300 0.0
10400 0.0
10500 0.0
10600 0.0
10700 0.0
10800 0.0
10900 0.0
11000 0.0
11100 0.0
11200 0.0
11300 0.0
11400 0.0
11500 0.0
11600 0.0
11700 0.0
11800 0.0
11900 0.0
12000 0.0
12100 0.0
12200 0.0
12300 0.0
12400 0.0
12500 0.0
12600 0.0
12700 0.0
12800 0.0
12900 0.0
13000 0.0
13100 0.0
13200 0.0
13300 0.0
13400 0.0
13500 0.0
13600 0.0
13700 0.0
13800 0.0
13900 0.0
14000 0.0
14100 0.0
14200 0.0
14300 0.0
14400 0.0
14500 0.0
14600 0.0
14700 0.0
14800 0.0
14900 0.0
15000 0.0
