
# Total neutron yield = 0.0  n/decay
	 li6 0.0
	 li7 0.0
# Integral of spectrum = 4.7827149665011004e-05  n/decay
100 2.169398182206082e-08
200 2.046892210406334e-08
300 2.104473208429841e-08
400 2.3496439416274205e-08
500 2.6153546031724826e-08
600 2.616411048187979e-08
700 2.6462165885030066e-08
800 2.586960838687682e-08
900 2.482161966245364e-08
1000 2.3904862027918246e-08
1100 2.274883767956103e-08
1200 2.0608552482294454e-08
1300 1.8540563466857138e-08
1400 1.6816457263056074e-08
1500 1.540096943466091e-08
1600 1.4175335390118064e-08
1700 1.3062401714587678e-08
1800 1.2072194908659168e-08
1900 1.1166938396016163e-08
2000 1.0321381331613739e-08
2100 9.451213074309145e-09
2200 8.546603513729769e-09
2300 7.770653254335381e-09
2400 7.147132588230796e-09
2500 6.525084205057896e-09
2600 5.895287915480641e-09
2700 5.136620526178755e-09
2800 4.590734216045579e-09
2900 4.147113557067389e-09
3000 3.706886899452095e-09
3100 3.2782148100772815e-09
3200 2.8922113149509656e-09
3300 2.496124748850255e-09
3400 2.1421343088259738e-09
3500 1.845083849060499e-09
3600 1.597335949876384e-09
3700 1.3816942448240961e-09
3800 1.1824314791977934e-09
3900 9.908227125260152e-10
4000 8.101897722216642e-10
4100 6.412984090600991e-10
4200 4.815821267186843e-10
4300 3.3528025090274623e-10
4400 2.032941280687094e-10
4500 8.284882505671665e-11
4600 0.0
4700 0.0
4800 0.0
4900 0.0
5000 0.0
5100 0.0
5200 0.0
5300 0.0
5400 0.0
5500 0.0
5600 0.0
5700 0.0
5800 0.0
5900 0.0
6000 0.0
6100 0.0
6200 0.0
6300 0.0
6400 0.0
6500 0.0
6600 0.0
6700 0.0
6800 0.0
6900 0.0
7000 0.0
7100 0.0
7200 0.0
7300 0.0
7400 0.0
7500 0.0
7600 0.0
7700 0.0
7800 0.0
7900 0.0
8000 0.0
8100 0.0
8200 0.0
8300 0.0
8400 0.0
8500 0.0
8600 0.0
8700 0.0
8800 0.0
8900 0.0
9000 0.0
9100 0.0
9200 0.0
9300 0.0
9400 0.0
9500 0.0
9600 0.0
9700 0.0
9800 0.0
9900 0.0
10000 0.0
10100 0.0
10200 0.0
10300 0.0
10400 0.0
10500 0.0
10600 0.0
10700 0.0
10800 0.0
10900 0.0
11000 0.0
11100 0.0
11200 0.0
11300 0.0
11400 0.0
11500 0.0
11600 0.0
11700 0.0
11800 0.0
11900 0.0
12000 0.0
12100 0.0
12200 0.0
12300 0.0
12400 0.0
12500 0.0
12600 0.0
12700 0.0
12800 0.0
12900 0.0
13000 0.0
13100 0.0
13200 0.0
13300 0.0
13400 0.0
13500 0.0
13600 0.0
13700 0.0
13800 0.0
13900 0.0
14000 0.0
14100 0.0
14200 0.0
14300 0.0
14400 0.0
14500 0.0
14600 0.0
14700 0.0
14800 0.0
14900 0.0
15000 0.0
