
# Total neutron yield = 0.0  n/decay
	 li6 0.0
	 li7 0.0
# Integral of spectrum = 7.524376855950911e-08  n/decay
100 1.266006012994155e-10
200 1.3415624861028777e-10
300 8.091988826723479e-11
400 5.829485815440747e-11
500 4.614170827828551e-11
600 3.860763997763884e-11
700 3.341546543024303e-11
800 2.965203653612167e-11
900 2.674982075226157e-11
1000 2.4413929710378415e-11
1100 2.236915908385328e-11
1200 2.0682809006309937e-11
1300 1.91906446818251e-11
1400 1.7697406812180464e-11
1500 1.6430921588718453e-11
1600 1.4274882938395196e-11
1700 1.2200920464723818e-11
1800 1.0012335050116424e-11
1900 7.86047178050061e-12
2000 5.9807349782643295e-12
2100 4.046671091435246e-12
2200 2.2320665395830203e-12
2300 5.064645629107924e-13
2400 0.0
2500 0.0
2600 0.0
2700 0.0
2800 0.0
2900 0.0
3000 0.0
3100 0.0
3200 0.0
3300 0.0
3400 0.0
3500 0.0
3600 0.0
3700 0.0
3800 0.0
3900 0.0
4000 0.0
4100 0.0
4200 0.0
4300 0.0
4400 0.0
4500 0.0
4600 0.0
4700 0.0
4800 0.0
4900 0.0
5000 0.0
5100 0.0
5200 0.0
5300 0.0
5400 0.0
5500 0.0
5600 0.0
5700 0.0
5800 0.0
5900 0.0
6000 0.0
6100 0.0
6200 0.0
6300 0.0
6400 0.0
6500 0.0
6600 0.0
6700 0.0
6800 0.0
6900 0.0
7000 0.0
7100 0.0
7200 0.0
7300 0.0
7400 0.0
7500 0.0
7600 0.0
7700 0.0
7800 0.0
7900 0.0
8000 0.0
8100 0.0
8200 0.0
8300 0.0
8400 0.0
8500 0.0
8600 0.0
8700 0.0
8800 0.0
8900 0.0
9000 0.0
9100 0.0
9200 0.0
9300 0.0
9400 0.0
9500 0.0
9600 0.0
9700 0.0
9800 0.0
9900 0.0
10000 0.0
10100 0.0
10200 0.0
10300 0.0
10400 0.0
10500 0.0
10600 0.0
10700 0.0
10800 0.0
10900 0.0
11000 0.0
11100 0.0
11200 0.0
11300 0.0
11400 0.0
11500 0.0
11600 0.0
11700 0.0
11800 0.0
11900 0.0
12000 0.0
12100 0.0
12200 0.0
12300 0.0
12400 0.0
12500 0.0
12600 0.0
12700 0.0
12800 0.0
12900 0.0
13000 0.0
13100 0.0
13200 0.0
13300 0.0
13400 0.0
13500 0.0
13600 0.0
13700 0.0
13800 0.0
13900 0.0
14000 0.0
14100 0.0
14200 0.0
14300 0.0
14400 0.0
14500 0.0
14600 0.0
14700 0.0
14800 0.0
14900 0.0
15000 0.0
