
# Total neutron yield = 0.0  n/decay
	 c12 0.0
	 c13 0.0
# Integral of spectrum = 1.3440051418296936e-07  n/decay
100 0.0
200 0.0
300 0.0
400 0.0
500 0.0
600 0.0
700 0.0
800 0.0
900 0.0
1000 0.0
1100 0.0
1200 0.0
1300 0.0
1400 0.0
1500 0.0
1600 0.0
1700 0.0
1800 0.0
1900 0.0
2000 0.0
2100 0.0
2200 0.0
2300 0.0
2400 6.68589764188205e-15
2500 1.157827780151e-13
2600 3.814086008861935e-13
2700 6.784307261547717e-13
2800 1.3183210423901952e-12
2900 3.610237454210071e-12
3000 1.3370099583301912e-11
3100 2.952157281014939e-11
3200 3.8208790694025804e-11
3300 4.0351943885918073e-11
3400 4.590122564329845e-11
3500 5.020973227748798e-11
3600 6.76036374046175e-11
3700 7.92373130003864e-11
3800 6.942890295040461e-11
3900 6.3767539024093e-11
4000 6.113223624264657e-11
4100 6.180546308066582e-11
4200 6.723083037458131e-11
4300 6.984863764933872e-11
4400 6.428377831801856e-11
4500 5.586368475263678e-11
4600 4.7089881942047725e-11
4700 4.482712918060185e-11
4800 4.274170524747166e-11
4900 4.0458892534584375e-11
5000 3.694262151854601e-11
5100 3.7725540935758724e-11
5200 3.6786707932627247e-11
5300 3.4687867271477014e-11
5400 2.6348808253996914e-11
5500 1.472593833484776e-11
5600 9.420029863640707e-12
5700 9.18362486166859e-12
5800 8.54425646321514e-12
5900 8.780679571058274e-12
6000 9.358913610931019e-12
6100 9.900274136933583e-12
6200 9.138474611548858e-12
6300 9.669627243244988e-12
6400 9.816736834373119e-12
6500 6.5144336505529515e-12
6600 6.140771923402662e-12
6700 1.3259717162949603e-12
6800 0.0
6900 0.0
7000 0.0
7100 0.0
7200 0.0
7300 0.0
7400 0.0
7500 0.0
7600 0.0
7700 0.0
7800 0.0
7900 0.0
8000 0.0
8100 0.0
8200 0.0
8300 0.0
8400 0.0
8500 0.0
8600 0.0
8700 0.0
8800 0.0
8900 0.0
9000 0.0
9100 0.0
9200 0.0
9300 0.0
9400 0.0
9500 0.0
9600 0.0
9700 0.0
9800 0.0
9900 0.0
10000 0.0
10100 0.0
10200 0.0
10300 0.0
10400 0.0
10500 0.0
10600 0.0
10700 0.0
10800 0.0
10900 0.0
11000 0.0
11100 0.0
11200 0.0
11300 0.0
11400 0.0
11500 0.0
11600 0.0
11700 0.0
11800 0.0
11900 0.0
12000 0.0
12100 0.0
12200 0.0
12300 0.0
12400 0.0
12500 0.0
12600 0.0
12700 0.0
12800 0.0
12900 0.0
13000 0.0
13100 0.0
13200 0.0
13300 0.0
13400 0.0
13500 0.0
13600 0.0
13700 0.0
13800 0.0
13900 0.0
14000 0.0
14100 0.0
14200 0.0
14300 0.0
14400 0.0
14500 0.0
14600 0.0
14700 0.0
14800 0.0
14900 0.0
15000 0.0
