
# Total neutron yield = 0.0  n/decay
	 b10 0.0
	 b11 0.0
# Integral of spectrum = 1.659940723749382e-05  n/decay
100 0.0
200 0.0
300 0.0
400 0.0
500 0.0
600 0.0
700 1.225461414058973e-13
800 9.852031310402173e-13
900 1.225344142556949e-10
1000 1.1344580691755284e-10
1100 2.15372256537798e-10
1200 7.543675273896702e-10
1300 7.539118343912699e-10
1400 1.2279438759608811e-09
1500 1.3901083461138817e-09
1600 1.6594232104639582e-09
1700 1.9257229637374996e-09
1800 2.3737476314627887e-09
1900 3.1416321465454108e-09
2000 4.0494985893731136e-09
2100 4.880234290722596e-09
2200 5.850354343020705e-09
2300 6.567659129879087e-09
2400 7.193568617049571e-09
2500 8.042692951407608e-09
2600 8.684056266921466e-09
2700 8.927042816027645e-09
2800 8.290746782817642e-09
2900 7.746239405411778e-09
3000 7.271397676632708e-09
3100 6.920377076122188e-09
3200 6.574785548671021e-09
3300 6.31646898534672e-09
3400 6.013834519486945e-09
3500 5.721414721375136e-09
3600 5.344727629451271e-09
3700 5.02355818723276e-09
3800 4.669099349801576e-09
3900 4.3056888909754015e-09
4000 3.986698890016553e-09
4100 3.555042722884173e-09
4200 3.071671092218097e-09
4300 2.7840175100954624e-09
4400 2.52932950334736e-09
4500 2.2580607820032616e-09
4600 1.9174868543654494e-09
4700 1.5507417145762896e-09
4800 1.0850950009697904e-09
4900 7.122243980100054e-10
5000 3.139605835231963e-10
5100 4.0041718483193595e-11
5200 3.203736418083622e-11
5300 2.4959640977850995e-11
5400 1.888796955722928e-11
5500 1.4131735081030268e-11
5600 1.0328047559531585e-11
5700 7.767963992073351e-12
5800 5.437474208195659e-12
5900 2.949702311755073e-12
6000 4.3816580106015685e-13
6100 0.0
6200 0.0
6300 0.0
6400 0.0
6500 0.0
6600 0.0
6700 0.0
6800 0.0
6900 0.0
7000 0.0
7100 0.0
7200 0.0
7300 0.0
7400 0.0
7500 0.0
7600 0.0
7700 0.0
7800 0.0
7900 0.0
8000 0.0
8100 0.0
8200 0.0
8300 0.0
8400 0.0
8500 0.0
8600 0.0
8700 0.0
8800 0.0
8900 0.0
9000 0.0
9100 0.0
9200 0.0
9300 0.0
9400 0.0
9500 0.0
9600 0.0
9700 0.0
9800 0.0
9900 0.0
10000 0.0
10100 0.0
10200 0.0
10300 0.0
10400 0.0
10500 0.0
10600 0.0
10700 0.0
10800 0.0
10900 0.0
11000 0.0
11100 0.0
11200 0.0
11300 0.0
11400 0.0
11500 0.0
11600 0.0
11700 0.0
11800 0.0
11900 0.0
12000 0.0
12100 0.0
12200 0.0
12300 0.0
12400 0.0
12500 0.0
12600 0.0
12700 0.0
12800 0.0
12900 0.0
13000 0.0
13100 0.0
13200 0.0
13300 0.0
13400 0.0
13500 0.0
13600 0.0
13700 0.0
13800 0.0
13900 0.0
14000 0.0
14100 0.0
14200 0.0
14300 0.0
14400 0.0
14500 0.0
14600 0.0
14700 0.0
14800 0.0
14900 0.0
15000 0.0
