
# Total neutron yield = 0.0  n/decay
	 c12 0.0
	 c13 0.0
# Integral of spectrum = 4.7859802448830235e-08  n/decay
100 4.2502577777518714e-11
200 3.545394568907851e-11
300 4.833287707901522e-11
400 4.4202106415112255e-11
500 4.0455400017076913e-11
600 3.669052603867319e-11
700 3.2774503367579265e-11
800 2.961723920457719e-11
900 2.7683016666783627e-11
1000 2.5330155640618217e-11
1100 2.2482970084706754e-11
1200 1.9283829419548327e-11
1300 1.4437176882965766e-11
1400 1.2107802299521942e-11
1500 1.0212597244369158e-11
1600 8.349823125156485e-12
1700 6.698166365006574e-12
1800 5.266850087547784e-12
1900 3.987631174533277e-12
2000 3.3198647581477935e-12
2100 2.6670131406248268e-12
2200 2.3225560168273924e-12
2300 1.901374050118502e-12
2400 1.3669303132522231e-12
2500 8.536807909293149e-13
2600 2.9739109493443725e-13
2700 5.577528276663645e-18
2800 4.7195951087887984e-18
2900 3.838286740821844e-18
3000 2.8308078773775168e-18
3100 1.9306078934238666e-18
3200 8.472527723808754e-19
3300 0.0
3400 0.0
3500 0.0
3600 0.0
3700 0.0
3800 0.0
3900 0.0
4000 0.0
4100 0.0
4200 0.0
4300 0.0
4400 0.0
4500 0.0
4600 0.0
4700 0.0
4800 0.0
4900 0.0
5000 0.0
5100 0.0
5200 0.0
5300 0.0
5400 0.0
5500 0.0
5600 0.0
5700 0.0
5800 0.0
5900 0.0
6000 0.0
6100 0.0
6200 0.0
6300 0.0
6400 0.0
6500 0.0
6600 0.0
6700 0.0
6800 0.0
6900 0.0
7000 0.0
7100 0.0
7200 0.0
7300 0.0
7400 0.0
7500 0.0
7600 0.0
7700 0.0
7800 0.0
7900 0.0
8000 0.0
8100 0.0
8200 0.0
8300 0.0
8400 0.0
8500 0.0
8600 0.0
8700 0.0
8800 0.0
8900 0.0
9000 0.0
9100 0.0
9200 0.0
9300 0.0
9400 0.0
9500 0.0
9600 0.0
9700 0.0
9800 0.0
9900 0.0
10000 0.0
10100 0.0
10200 0.0
10300 0.0
10400 0.0
10500 0.0
10600 0.0
10700 0.0
10800 0.0
10900 0.0
11000 0.0
11100 0.0
11200 0.0
11300 0.0
11400 0.0
11500 0.0
11600 0.0
11700 0.0
11800 0.0
11900 0.0
12000 0.0
12100 0.0
12200 0.0
12300 0.0
12400 0.0
12500 0.0
12600 0.0
12700 0.0
12800 0.0
12900 0.0
13000 0.0
13100 0.0
13200 0.0
13300 0.0
13400 0.0
13500 0.0
13600 0.0
13700 0.0
13800 0.0
13900 0.0
14000 0.0
14100 0.0
14200 0.0
14300 0.0
14400 0.0
14500 0.0
14600 0.0
14700 0.0
14800 0.0
14900 0.0
15000 0.0
