
# Total neutron yield = 0.0  n/decay
	 c12 0.0
	 c13 0.0
# Integral of spectrum = 2.592274929545669e-07  n/decay
100 1.197597778852971e-10
200 1.5407259843487108e-10
300 2.2243672992090007e-10
400 1.979473759808504e-10
500 1.834697714457967e-10
600 1.681377754025382e-10
700 1.6022522414966813e-10
800 1.5710246851120037e-10
900 1.5524453184890226e-10
1000 1.5473527572673123e-10
1100 1.4239072804580494e-10
1200 1.108411247023104e-10
1300 9.610293910715798e-11
1400 8.385631328810283e-11
1500 7.386184820738116e-11
1600 6.500948557392213e-11
1700 5.766389459502813e-11
1800 5.161917967095298e-11
1900 4.631236348320296e-11
2000 4.1061619096176686e-11
2100 3.614383694346684e-11
2200 3.105681853448426e-11
2300 2.6009268331165044e-11
2400 2.063814048567049e-11
2500 1.588734473971307e-11
2600 1.1335211066036986e-11
2700 6.969631990470622e-12
2800 2.3836523778655067e-12
2900 0.0
3000 0.0
3100 0.0
3200 0.0
3300 0.0
3400 0.0
3500 0.0
3600 0.0
3700 0.0
3800 0.0
3900 0.0
4000 0.0
4100 0.0
4200 0.0
4300 0.0
4400 0.0
4500 0.0
4600 0.0
4700 0.0
4800 0.0
4900 0.0
5000 0.0
5100 0.0
5200 0.0
5300 0.0
5400 0.0
5500 0.0
5600 0.0
5700 0.0
5800 0.0
5900 0.0
6000 0.0
6100 0.0
6200 0.0
6300 0.0
6400 0.0
6500 0.0
6600 0.0
6700 0.0
6800 0.0
6900 0.0
7000 0.0
7100 0.0
7200 0.0
7300 0.0
7400 0.0
7500 0.0
7600 0.0
7700 0.0
7800 0.0
7900 0.0
8000 0.0
8100 0.0
8200 0.0
8300 0.0
8400 0.0
8500 0.0
8600 0.0
8700 0.0
8800 0.0
8900 0.0
9000 0.0
9100 0.0
9200 0.0
9300 0.0
9400 0.0
9500 0.0
9600 0.0
9700 0.0
9800 0.0
9900 0.0
10000 0.0
10100 0.0
10200 0.0
10300 0.0
10400 0.0
10500 0.0
10600 0.0
10700 0.0
10800 0.0
10900 0.0
11000 0.0
11100 0.0
11200 0.0
11300 0.0
11400 0.0
11500 0.0
11600 0.0
11700 0.0
11800 0.0
11900 0.0
12000 0.0
12100 0.0
12200 0.0
12300 0.0
12400 0.0
12500 0.0
12600 0.0
12700 0.0
12800 0.0
12900 0.0
13000 0.0
13100 0.0
13200 0.0
13300 0.0
13400 0.0
13500 0.0
13600 0.0
13700 0.0
13800 0.0
13900 0.0
14000 0.0
14100 0.0
14200 0.0
14300 0.0
14400 0.0
14500 0.0
14600 0.0
14700 0.0
14800 0.0
14900 0.0
15000 0.0
