
# Total neutron yield = 0.0  n/decay
	 c12 0.0
	 c13 0.0
# Integral of spectrum = 2.78992695513815e-08  n/decay
100 2.509983155045276e-11
200 1.8474555692652525e-11
300 2.6706954162486193e-11
400 2.093021590126908e-11
500 1.753177586394783e-11
600 1.5590504014894005e-11
700 1.468759392669887e-11
800 1.4823403263387345e-11
900 1.501420727332881e-11
1000 1.5048309061962977e-11
1100 1.5058784104984216e-11
1200 1.2555303924908977e-11
1300 9.037285856258774e-12
1400 7.748395456353188e-12
1500 6.810579632003916e-12
1600 6.004670919465972e-12
1700 5.3401400844702385e-12
1800 4.812231948112883e-12
1900 4.366289277028603e-12
2000 4.045486271782572e-12
2100 3.755587342217509e-12
2200 3.441944314450391e-12
2300 3.0741567418467328e-12
2400 2.617721251745463e-12
2500 2.2089381649817545e-12
2600 1.7862691384314592e-12
2700 1.285659728722085e-12
2800 8.189774495032994e-13
2900 3.1692319546662464e-13
3000 0.0
3100 0.0
3200 0.0
3300 0.0
3400 0.0
3500 0.0
3600 0.0
3700 0.0
3800 0.0
3900 0.0
4000 0.0
4100 0.0
4200 0.0
4300 0.0
4400 0.0
4500 0.0
4600 0.0
4700 0.0
4800 0.0
4900 0.0
5000 0.0
5100 0.0
5200 0.0
5300 0.0
5400 0.0
5500 0.0
5600 0.0
5700 0.0
5800 0.0
5900 0.0
6000 0.0
6100 0.0
6200 0.0
6300 0.0
6400 0.0
6500 0.0
6600 0.0
6700 0.0
6800 0.0
6900 0.0
7000 0.0
7100 0.0
7200 0.0
7300 0.0
7400 0.0
7500 0.0
7600 0.0
7700 0.0
7800 0.0
7900 0.0
8000 0.0
8100 0.0
8200 0.0
8300 0.0
8400 0.0
8500 0.0
8600 0.0
8700 0.0
8800 0.0
8900 0.0
9000 0.0
9100 0.0
9200 0.0
9300 0.0
9400 0.0
9500 0.0
9600 0.0
9700 0.0
9800 0.0
9900 0.0
10000 0.0
10100 0.0
10200 0.0
10300 0.0
10400 0.0
10500 0.0
10600 0.0
10700 0.0
10800 0.0
10900 0.0
11000 0.0
11100 0.0
11200 0.0
11300 0.0
11400 0.0
11500 0.0
11600 0.0
11700 0.0
11800 0.0
11900 0.0
12000 0.0
12100 0.0
12200 0.0
12300 0.0
12400 0.0
12500 0.0
12600 0.0
12700 0.0
12800 0.0
12900 0.0
13000 0.0
13100 0.0
13200 0.0
13300 0.0
13400 0.0
13500 0.0
13600 0.0
13700 0.0
13800 0.0
13900 0.0
14000 0.0
14100 0.0
14200 0.0
14300 0.0
14400 0.0
14500 0.0
14600 0.0
14700 0.0
14800 0.0
14900 0.0
15000 0.0
