
# Total neutron yield = 0.0  n/decay
	 c12 0.0
	 c13 0.0
# Integral of spectrum = 9.331077757760713e-08  n/decay
100 3.981243969564382e-11
200 4.79503927753896e-11
300 4.5267449416656494e-11
400 4.854254074974699e-11
500 5.135586280917889e-11
600 5.338824627071193e-11
700 5.499671488325962e-11
800 5.588118419236393e-11
900 5.614550665386429e-11
1000 5.7039706366822176e-11
1100 5.467952193586612e-11
1200 4.764242661140578e-11
1300 4.206723589887242e-11
1400 3.7338453646661494e-11
1500 3.334112103999519e-11
1600 2.9892404564971374e-11
1700 2.7050276514269157e-11
1800 2.4318188323204504e-11
1900 2.1831626982699226e-11
2000 1.956666438790349e-11
2100 1.744823757024223e-11
2200 1.538959254660436e-11
2300 1.3375664887367645e-11
2400 1.1213333424382112e-11
2500 9.284921258976787e-12
2600 7.39911630013582e-12
2700 5.539832115390314e-12
2800 3.689999894690224e-12
2900 1.6591140587954112e-12
3000 0.0
3100 0.0
3200 0.0
3300 0.0
3400 0.0
3500 0.0
3600 0.0
3700 0.0
3800 0.0
3900 0.0
4000 0.0
4100 0.0
4200 0.0
4300 0.0
4400 0.0
4500 0.0
4600 0.0
4700 0.0
4800 0.0
4900 0.0
5000 0.0
5100 0.0
5200 0.0
5300 0.0
5400 0.0
5500 0.0
5600 0.0
5700 0.0
5800 0.0
5900 0.0
6000 0.0
6100 0.0
6200 0.0
6300 0.0
6400 0.0
6500 0.0
6600 0.0
6700 0.0
6800 0.0
6900 0.0
7000 0.0
7100 0.0
7200 0.0
7300 0.0
7400 0.0
7500 0.0
7600 0.0
7700 0.0
7800 0.0
7900 0.0
8000 0.0
8100 0.0
8200 0.0
8300 0.0
8400 0.0
8500 0.0
8600 0.0
8700 0.0
8800 0.0
8900 0.0
9000 0.0
9100 0.0
9200 0.0
9300 0.0
9400 0.0
9500 0.0
9600 0.0
9700 0.0
9800 0.0
9900 0.0
10000 0.0
10100 0.0
10200 0.0
10300 0.0
10400 0.0
10500 0.0
10600 0.0
10700 0.0
10800 0.0
10900 0.0
11000 0.0
11100 0.0
11200 0.0
11300 0.0
11400 0.0
11500 0.0
11600 0.0
11700 0.0
11800 0.0
11900 0.0
12000 0.0
12100 0.0
12200 0.0
12300 0.0
12400 0.0
12500 0.0
12600 0.0
12700 0.0
12800 0.0
12900 0.0
13000 0.0
13100 0.0
13200 0.0
13300 0.0
13400 0.0
13500 0.0
13600 0.0
13700 0.0
13800 0.0
13900 0.0
14000 0.0
14100 0.0
14200 0.0
14300 0.0
14400 0.0
14500 0.0
14600 0.0
14700 0.0
14800 0.0
14900 0.0
15000 0.0
