
# Total neutron yield = 0.0  n/decay
	 c12 0.0
	 c13 0.0
# Integral of spectrum = 4.541421936611745e-08  n/decay
100 4.0187266486961295e-11
200 3.118713021769366e-11
300 4.193790806718493e-11
400 3.876680242656221e-11
500 3.258599910489742e-11
600 2.827905514506836e-11
700 2.5547692967977468e-11
800 2.290299552620379e-11
900 2.1199152376125597e-11
1000 1.9996002192146713e-11
1100 1.93481162838353e-11
1200 1.7651373483506765e-11
1300 1.3972366726247062e-11
1400 1.2264525240223628e-11
1500 1.0877275720154302e-11
1600 9.531263307695328e-12
1700 8.67314851248232e-12
1800 7.172884315593692e-12
1900 5.973018694562662e-12
2000 5.040161351877761e-12
2100 4.431105313406928e-12
2200 4.117088243669047e-12
2300 3.810106757216162e-12
2400 3.479782051277717e-12
2500 3.2094799815621863e-12
2600 2.958392119074491e-12
2700 2.6858582652037043e-12
2800 2.4651620191518253e-12
2900 2.254449191050669e-12
3000 2.0265630198931557e-12
3100 1.8486787582679318e-12
3200 1.6424593148486835e-12
3300 1.4675875135432947e-12
3400 1.2621441415411362e-12
3500 1.0839295374970283e-12
3600 9.010570729150217e-13
3700 6.836508968800017e-13
3800 4.819174247202935e-13
3900 2.3864389245497934e-13
4000 0.0
4100 0.0
4200 0.0
4300 0.0
4400 0.0
4500 0.0
4600 0.0
4700 0.0
4800 0.0
4900 0.0
5000 0.0
5100 0.0
5200 0.0
5300 0.0
5400 0.0
5500 0.0
5600 0.0
5700 0.0
5800 0.0
5900 0.0
6000 0.0
6100 0.0
6200 0.0
6300 0.0
6400 0.0
6500 0.0
6600 0.0
6700 0.0
6800 0.0
6900 0.0
7000 0.0
7100 0.0
7200 0.0
7300 0.0
7400 0.0
7500 0.0
7600 0.0
7700 0.0
7800 0.0
7900 0.0
8000 0.0
8100 0.0
8200 0.0
8300 0.0
8400 0.0
8500 0.0
8600 0.0
8700 0.0
8800 0.0
8900 0.0
9000 0.0
9100 0.0
9200 0.0
9300 0.0
9400 0.0
9500 0.0
9600 0.0
9700 0.0
9800 0.0
9900 0.0
10000 0.0
10100 0.0
10200 0.0
10300 0.0
10400 0.0
10500 0.0
10600 0.0
10700 0.0
10800 0.0
10900 0.0
11000 0.0
11100 0.0
11200 0.0
11300 0.0
11400 0.0
11500 0.0
11600 0.0
11700 0.0
11800 0.0
11900 0.0
12000 0.0
12100 0.0
12200 0.0
12300 0.0
12400 0.0
12500 0.0
12600 0.0
12700 0.0
12800 0.0
12900 0.0
13000 0.0
13100 0.0
13200 0.0
13300 0.0
13400 0.0
13500 0.0
13600 0.0
13700 0.0
13800 0.0
13900 0.0
14000 0.0
14100 0.0
14200 0.0
14300 0.0
14400 0.0
14500 0.0
14600 0.0
14700 0.0
14800 0.0
14900 0.0
15000 0.0
