
# Total neutron yield = 0.0  n/decay
	 na23 0.0
# Integral of spectrum = 1.4509658613728456e-07  n/decay
100 0.0
200 0.0
300 0.0
400 0.0
500 0.0
600 0.0
700 0.0
800 0.0
900 0.0
1000 0.0
1100 0.0
1200 0.0
1300 0.0
1400 0.0
1500 0.0
1600 0.0
1700 0.0
1800 0.0
1900 0.0
2000 0.0
2100 0.0
2200 0.0
2300 0.0
2400 0.0
2500 0.0
2600 0.0
2700 0.0
2800 0.0
2900 0.0
3000 0.0
3100 0.0
3200 0.0
3300 0.0
3400 0.0
3500 0.0
3600 0.0
3700 0.0
3800 0.0
3900 0.0
4000 0.0
4100 0.0
4200 0.0
4300 0.0
4400 0.0
4500 0.0
4600 0.0
4700 0.0
4800 0.0
4900 0.0
5000 0.0
5100 0.0
5200 0.0
5300 0.0
5400 1.2224786588367049e-14
5500 2.676818170869246e-12
5600 9.363223944506308e-12
5700 1.9358372773815277e-11
5800 2.997746328554129e-11
5900 4.281972191045385e-11
6000 5.563877325356913e-11
6100 6.91332691596464e-11
6200 7.283128253088891e-11
6300 7.048171108727523e-11
6400 6.842250944384373e-11
6500 6.662246166421056e-11
6600 6.505550064673212e-11
6700 6.3699358584913e-11
6800 6.253499765529014e-11
6900 6.154601141043476e-11
7000 6.071798862163256e-11
7100 6.003830234370313e-11
7200 5.949591627992593e-11
7300 5.908094899475172e-11
7400 5.878474054305223e-11
7500 5.856751479430354e-11
7600 5.7425461008952355e-11
7700 5.44853015579032e-11
7800 5.029896215682062e-11
7900 4.479699604816492e-11
8000 3.9194001496336645e-11
8100 3.232388346823668e-11
8200 2.545450548002086e-11
8300 1.8049730715754503e-11
8400 9.802893049250801e-12
8500 2.2750145054577556e-12
8600 0.0
8700 0.0
8800 0.0
8900 0.0
9000 0.0
9100 0.0
9200 0.0
9300 0.0
9400 0.0
9500 0.0
9600 0.0
9700 0.0
9800 0.0
9900 0.0
10000 0.0
10100 0.0
10200 0.0
10300 0.0
10400 0.0
10500 0.0
10600 0.0
10700 0.0
10800 0.0
10900 0.0
11000 0.0
11100 0.0
11200 0.0
11300 0.0
11400 0.0
11500 0.0
11600 0.0
11700 0.0
11800 0.0
11900 0.0
12000 0.0
12100 0.0
12200 0.0
12300 0.0
12400 0.0
12500 0.0
12600 0.0
12700 0.0
12800 0.0
12900 0.0
13000 0.0
13100 0.0
13200 0.0
13300 0.0
13400 0.0
13500 0.0
13600 0.0
13700 0.0
13800 0.0
13900 0.0
14000 0.0
14100 0.0
14200 0.0
14300 0.0
14400 0.0
14500 0.0
14600 0.0
14700 0.0
14800 0.0
14900 0.0
15000 0.0
