
# Total neutron yield = 0.0  n/decay
	 na23 0.0
# Integral of spectrum = 1.332885611096818e-06  n/decay
100 0.0
200 0.0
300 0.0
400 0.0
500 0.0
600 0.0
700 0.0
800 0.0
900 0.0
1000 0.0
1100 0.0
1200 0.0
1300 0.0
1400 0.0
1500 0.0
1600 0.0
1700 0.0
1800 0.0
1900 0.0
2000 0.0
2100 0.0
2200 0.0
2300 0.0
2400 0.0
2500 0.0
2600 0.0
2700 0.0
2800 0.0
2900 0.0
3000 0.0
3100 0.0
3200 0.0
3300 0.0
3400 0.0
3500 0.0
3600 0.0
3700 0.0
3800 0.0
3900 0.0
4000 0.0
4100 0.0
4200 0.0
4300 0.0
4400 0.0
4500 0.0
4600 0.0
4700 0.0
4800 0.0
4900 0.0
5000 0.0
5100 0.0
5200 0.0
5300 0.0
5400 0.0
5500 0.0
5600 9.044409505152036e-12
5700 5.4142380682446065e-11
5800 1.2754666328864088e-10
5900 2.1000359587163543e-10
6000 2.79133687140743e-10
6100 3.346361992718426e-10
6200 3.87531081956533e-10
6300 4.433869050360888e-10
6400 4.5136280492146325e-10
6500 4.626346793529217e-10
6600 4.727159558142595e-10
6700 4.852351093567539e-10
6800 4.982420510354892e-10
6900 5.099967118173259e-10
7000 5.240157114534785e-10
7100 5.368399457308476e-10
7200 5.517941102302484e-10
7300 5.655079725264059e-10
7400 5.765886974979086e-10
7500 5.70794294043964e-10
7600 5.539766850193394e-10
7700 5.170145432905823e-10
7800 4.673181439870211e-10
7900 4.1554843045382185e-10
8000 3.715703229914656e-10
8100 3.3508017939528353e-10
8200 2.934456932035356e-10
8300 2.559508862937899e-10
8400 2.1872225813112244e-10
8500 2.032654454238338e-10
8600 1.8975492959924591e-10
8700 1.7529032194012036e-10
8800 1.6285858840606982e-10
8900 1.4955499387456831e-10
9000 1.381063814139423e-10
9100 1.2705406800654397e-10
9200 1.1503060127415577e-10
9300 1.046217726807222e-10
9400 9.319852980720073e-11
9500 8.326164789907935e-11
9600 7.348667200611004e-11
9700 6.268690636775957e-11
9800 5.3226209484485096e-11
9900 4.272695047984891e-11
10000 3.3400835869708623e-11
10100 2.4044625361748758e-11
10200 1.355948054448288e-11
10300 3.947041228439036e-12
10400 0.0
10500 0.0
10600 0.0
10700 0.0
10800 0.0
10900 0.0
11000 0.0
11100 0.0
11200 0.0
11300 0.0
11400 0.0
11500 0.0
11600 0.0
11700 0.0
11800 0.0
11900 0.0
12000 0.0
12100 0.0
12200 0.0
12300 0.0
12400 0.0
12500 0.0
12600 0.0
12700 0.0
12800 0.0
12900 0.0
13000 0.0
13100 0.0
13200 0.0
13300 0.0
13400 0.0
13500 0.0
13600 0.0
13700 0.0
13800 0.0
13900 0.0
14000 0.0
14100 0.0
14200 0.0
14300 0.0
14400 0.0
14500 0.0
14600 0.0
14700 0.0
14800 0.0
14900 0.0
15000 0.0
