
# Total neutron yield = 0.0  n/decay
	 be9 0.0
# Integral of spectrum = 3.0468482055554173e-05  n/decay
100 2.7718968775711716e-09
200 3.272956882408606e-09
300 3.984541719974114e-09
400 7.99991271128855e-09
500 1.1637712200662046e-08
600 1.5531717520329678e-08
700 1.6464098336144412e-08
800 1.7063892560293708e-08
900 1.6635091938749416e-08
1000 1.5898178676627436e-08
1100 1.5562419332836728e-08
1200 1.4895572903857798e-08
1300 1.4295134482529216e-08
1400 1.3577813380240236e-08
1500 1.2590592943085174e-08
1600 1.166804219397267e-08
1700 1.0782912324159677e-08
1800 1.0113363017249517e-08
1900 9.179666459442558e-09
2000 8.468932860495897e-09
2100 7.968114496915122e-09
2200 7.570413372265556e-09
2300 7.003474315764779e-09
2400 6.192099361128713e-09
2500 5.464409806388236e-09
2600 4.733012815925592e-09
2700 4.111563382617756e-09
2800 3.6242061455945968e-09
2900 3.252466009611653e-09
3000 2.8909300642083375e-09
3100 2.5092528200708074e-09
3200 2.1732254155670186e-09
3300 1.937663324500572e-09
3400 1.7541832490270022e-09
3500 1.585117497935488e-09
3600 1.4318854446499378e-09
3700 1.295969780479605e-09
3800 1.1630374623960103e-09
3900 1.0406021932492996e-09
4000 9.298061305567153e-10
4100 8.265062818968909e-10
4200 7.260025342034371e-10
4300 6.244977890050647e-10
4400 5.229621723217852e-10
4500 4.229663328152698e-10
4600 3.156186610283077e-10
4700 1.8503142938187517e-10
4800 3.5352944117732454e-11
4900 0.0
5000 0.0
5100 0.0
5200 0.0
5300 0.0
5400 0.0
5500 0.0
5600 0.0
5700 0.0
5800 0.0
5900 0.0
6000 0.0
6100 0.0
6200 0.0
6300 0.0
6400 0.0
6500 0.0
6600 0.0
6700 0.0
6800 0.0
6900 0.0
7000 0.0
7100 0.0
7200 0.0
7300 0.0
7400 0.0
7500 0.0
7600 0.0
7700 0.0
7800 0.0
7900 0.0
8000 0.0
8100 0.0
8200 0.0
8300 0.0
8400 0.0
8500 0.0
8600 0.0
8700 0.0
8800 0.0
8900 0.0
9000 0.0
9100 0.0
9200 0.0
9300 0.0
9400 0.0
9500 0.0
9600 0.0
9700 0.0
9800 0.0
9900 0.0
10000 0.0
10100 0.0
10200 0.0
10300 0.0
10400 0.0
10500 0.0
10600 0.0
10700 0.0
10800 0.0
10900 0.0
11000 0.0
11100 0.0
11200 0.0
11300 0.0
11400 0.0
11500 0.0
11600 0.0
11700 0.0
11800 0.0
11900 0.0
12000 0.0
12100 0.0
12200 0.0
12300 0.0
12400 0.0
12500 0.0
12600 0.0
12700 0.0
12800 0.0
12900 0.0
13000 0.0
13100 0.0
13200 0.0
13300 0.0
13400 0.0
13500 0.0
13600 0.0
13700 0.0
13800 0.0
13900 0.0
14000 0.0
14100 0.0
14200 0.0
14300 0.0
14400 0.0
14500 0.0
14600 0.0
14700 0.0
14800 0.0
14900 0.0
15000 0.0
