
# Total neutron yield = 0.0  n/decay
	 f19 0.0
# Integral of spectrum = 1.331090192485122e-06  n/decay
100 0.0
200 0.0
300 0.0
400 0.0
500 0.0
600 0.0
700 0.0
800 0.0
900 0.0
1000 0.0
1100 0.0
1200 0.0
1300 0.0
1400 0.0
1500 0.0
1600 0.0
1700 0.0
1800 0.0
1900 0.0
2000 0.0
2100 0.0
2200 0.0
2300 0.0
2400 0.0
2500 0.0
2600 0.0
2700 0.0
2800 0.0
2900 0.0
3000 0.0
3100 0.0
3200 0.0
3300 0.0
3400 0.0
3500 0.0
3600 0.0
3700 0.0
3800 0.0
3900 0.0
4000 0.0
4100 0.0
4200 0.0
4300 0.0
4400 0.0
4500 0.0
4600 0.0
4700 8.253028271907653e-13
4800 2.303533114520298e-11
4900 7.044957328663932e-11
5000 1.4872307707112553e-10
5100 2.523889278542983e-10
5200 3.8023512899628497e-10
5300 5.252484613010819e-10
5400 6.133076950655026e-10
5500 7.031347252320433e-10
5600 8.004065391914696e-10
5700 8.291438142407271e-10
5800 7.518254375428464e-10
5900 6.969524904504675e-10
6000 6.606922249948547e-10
6100 6.401901041471526e-10
6200 6.297204488337291e-10
6300 6.215499266452374e-10
6400 6.107592646845171e-10
6500 5.990822283468002e-10
6600 5.833381335495783e-10
6700 5.553058166446491e-10
6800 5.240280513089317e-10
6900 4.73346614920759e-10
7000 4.1792735575832354e-10
7100 3.5329970186892636e-10
7200 2.9773388777331626e-10
7300 2.458680770337336e-10
7400 1.7480704790044115e-10
7500 1.0143550637531195e-10
7600 2.614102986007714e-11
7700 0.0
7800 0.0
7900 0.0
8000 0.0
8100 0.0
8200 0.0
8300 0.0
8400 0.0
8500 0.0
8600 0.0
8700 0.0
8800 0.0
8900 0.0
9000 0.0
9100 0.0
9200 0.0
9300 0.0
9400 0.0
9500 0.0
9600 0.0
9700 0.0
9800 0.0
9900 0.0
10000 0.0
10100 0.0
10200 0.0
10300 0.0
10400 0.0
10500 0.0
10600 0.0
10700 0.0
10800 0.0
10900 0.0
11000 0.0
11100 0.0
11200 0.0
11300 0.0
11400 0.0
11500 0.0
11600 0.0
11700 0.0
11800 0.0
11900 0.0
12000 0.0
12100 0.0
12200 0.0
12300 0.0
12400 0.0
12500 0.0
12600 0.0
12700 0.0
12800 0.0
12900 0.0
13000 0.0
13100 0.0
13200 0.0
13300 0.0
13400 0.0
13500 0.0
13600 0.0
13700 0.0
13800 0.0
13900 0.0
14000 0.0
14100 0.0
14200 0.0
14300 0.0
14400 0.0
14500 0.0
14600 0.0
14700 0.0
14800 0.0
14900 0.0
15000 0.0
