
# Total neutron yield = 0.0  n/decay
	 f19 0.0
# Integral of spectrum = 2.695366177916673e-06  n/decay
100 0.0
200 0.0
300 0.0
400 0.0
500 0.0
600 0.0
700 0.0
800 0.0
900 0.0
1000 0.0
1100 0.0
1200 0.0
1300 0.0
1400 0.0
1500 0.0
1600 0.0
1700 0.0
1800 0.0
1900 0.0
2000 0.0
2100 0.0
2200 0.0
2300 0.0
2400 0.0
2500 0.0
2600 0.0
2700 0.0
2800 0.0
2900 0.0
3000 0.0
3100 0.0
3200 0.0
3300 0.0
3400 0.0
3500 0.0
3600 0.0
3700 0.0
3800 0.0
3900 0.0
4000 0.0
4100 0.0
4200 0.0
4300 0.0
4400 0.0
4500 0.0
4600 0.0
4700 0.0
4800 8.661601320095503e-14
4900 1.814339625178166e-12
5000 8.171309182557203e-12
5100 1.9486750537246538e-11
5200 3.592166360647941e-11
5300 6.167261776475523e-11
5400 9.764214812490356e-11
5500 1.4351948099132956e-10
5600 2.0125141333426282e-10
5700 2.66707970250318e-10
5800 3.4849632634894805e-10
5900 4.4344549150743495e-10
6000 5.523990344995845e-10
6100 6.748995926070498e-10
6200 8.082347361663492e-10
6300 9.39385296114411e-10
6400 1.0862583324479595e-09
6500 1.2383985346653614e-09
6600 1.3930871097740593e-09
6700 1.4222572927443544e-09
6800 1.4011039999163446e-09
6900 1.3737754494585954e-09
7000 1.3399038521677059e-09
7100 1.297885633368369e-09
7200 1.252516814073874e-09
7300 1.2017996560073742e-09
7400 1.142855712050887e-09
7500 1.0829443243510716e-09
7600 1.0152228946438443e-09
7700 9.47917104521192e-10
7800 8.772052897748811e-10
7900 7.979834620891639e-10
8000 7.211461748501854e-10
8100 6.357344968286569e-10
8200 5.551751091796471e-10
8300 4.741815156790326e-10
8400 3.859177087458779e-10
8500 3.0408899293936344e-10
8600 2.1476337862519455e-10
8700 1.3387642524247826e-10
8800 5.452772834725163e-11
8900 0.0
9000 0.0
9100 0.0
9200 0.0
9300 0.0
9400 0.0
9500 0.0
9600 0.0
9700 0.0
9800 0.0
9900 0.0
10000 0.0
10100 0.0
10200 0.0
10300 0.0
10400 0.0
10500 0.0
10600 0.0
10700 0.0
10800 0.0
10900 0.0
11000 0.0
11100 0.0
11200 0.0
11300 0.0
11400 0.0
11500 0.0
11600 0.0
11700 0.0
11800 0.0
11900 0.0
12000 0.0
12100 0.0
12200 0.0
12300 0.0
12400 0.0
12500 0.0
12600 0.0
12700 0.0
12800 0.0
12900 0.0
13000 0.0
13100 0.0
13200 0.0
13300 0.0
13400 0.0
13500 0.0
13600 0.0
13700 0.0
13800 0.0
13900 0.0
14000 0.0
14100 0.0
14200 0.0
14300 0.0
14400 0.0
14500 0.0
14600 0.0
14700 0.0
14800 0.0
14900 0.0
15000 0.0
