
# Total neutron yield = 0.0  n/decay
	 f19 0.0
# Integral of spectrum = 2.399714300510139e-07  n/decay
100 0.0
200 0.0
300 0.0
400 0.0
500 0.0
600 0.0
700 0.0
800 0.0
900 0.0
1000 0.0
1100 0.0
1200 0.0
1300 0.0
1400 0.0
1500 0.0
1600 0.0
1700 0.0
1800 0.0
1900 0.0
2000 0.0
2100 0.0
2200 0.0
2300 0.0
2400 0.0
2500 0.0
2600 0.0
2700 0.0
2800 0.0
2900 0.0
3000 0.0
3100 0.0
3200 0.0
3300 0.0
3400 0.0
3500 0.0
3600 0.0
3700 0.0
3800 0.0
3900 0.0
4000 0.0
4100 0.0
4200 0.0
4300 0.0
4400 0.0
4500 0.0
4600 1.9632212883983837e-13
4700 4.015677353821461e-12
4800 1.3419075217077543e-11
4900 2.954561813841005e-11
5000 5.057793781486257e-11
5100 7.911773463823942e-11
5200 1.1448777462242099e-10
5300 1.4420614924491777e-10
5400 1.3932929785177561e-10
5500 1.3514637874661799e-10
5600 1.3156117665415577e-10
5700 1.2849451542132226e-10
5800 1.2588127229958915e-10
5900 1.2366854328012967e-10
6000 1.218135342064518e-10
6100 1.2028179436857106e-10
6200 1.190458697315564e-10
6300 1.177683899752281e-10
6400 1.1494939947715783e-10
6500 1.1083355827940903e-10
6600 1.044163735416043e-10
6700 9.640286594861635e-11
6800 8.520054178960705e-11
6900 7.286712564269144e-11
7000 5.7001121322330466e-11
7100 4.027119480207906e-11
7200 1.921505801265602e-11
7300 0.0
7400 0.0
7500 0.0
7600 0.0
7700 0.0
7800 0.0
7900 0.0
8000 0.0
8100 0.0
8200 0.0
8300 0.0
8400 0.0
8500 0.0
8600 0.0
8700 0.0
8800 0.0
8900 0.0
9000 0.0
9100 0.0
9200 0.0
9300 0.0
9400 0.0
9500 0.0
9600 0.0
9700 0.0
9800 0.0
9900 0.0
10000 0.0
10100 0.0
10200 0.0
10300 0.0
10400 0.0
10500 0.0
10600 0.0
10700 0.0
10800 0.0
10900 0.0
11000 0.0
11100 0.0
11200 0.0
11300 0.0
11400 0.0
11500 0.0
11600 0.0
11700 0.0
11800 0.0
11900 0.0
12000 0.0
12100 0.0
12200 0.0
12300 0.0
12400 0.0
12500 0.0
12600 0.0
12700 0.0
12800 0.0
12900 0.0
13000 0.0
13100 0.0
13200 0.0
13300 0.0
13400 0.0
13500 0.0
13600 0.0
13700 0.0
13800 0.0
13900 0.0
14000 0.0
14100 0.0
14200 0.0
14300 0.0
14400 0.0
14500 0.0
14600 0.0
14700 0.0
14800 0.0
14900 0.0
15000 0.0
