
# Total neutron yield = 0.0  n/decay
	 f19 0.0
# Integral of spectrum = 2.707099687217521e-06  n/decay
100 0.0
200 0.0
300 0.0
400 0.0
500 0.0
600 0.0
700 0.0
800 0.0
900 0.0
1000 0.0
1100 0.0
1200 0.0
1300 0.0
1400 0.0
1500 0.0
1600 0.0
1700 0.0
1800 0.0
1900 0.0
2000 0.0
2100 0.0
2200 0.0
2300 0.0
2400 0.0
2500 0.0
2600 0.0
2700 0.0
2800 0.0
2900 0.0
3000 0.0
3100 0.0
3200 0.0
3300 0.0
3400 0.0
3500 0.0
3600 0.0
3700 0.0
3800 0.0
3900 0.0
4000 0.0
4100 0.0
4200 0.0
4300 0.0
4400 0.0
4500 2.7354273272256703e-12
4600 4.2674146774751503e-11
4700 1.225463361153378e-10
4800 2.53041409168171e-10
4900 3.325778723473401e-10
5000 4.1611888902100933e-10
5100 5.157748471389908e-10
5200 6.144802812280098e-10
5300 7.205025842843091e-10
5400 8.259763166143185e-10
5500 9.220982733849414e-10
5600 1.0224773493715683e-09
5700 1.1107890726644468e-09
5800 1.2034804722557706e-09
5900 1.284108632334852e-09
6000 1.2480421754480846e-09
6100 1.2154046199119113e-09
6200 1.1863574776356628e-09
6300 1.1608364687623412e-09
6400 1.1373881557108218e-09
6500 1.1059259580714825e-09
6600 1.0613009418709166e-09
6700 1.0083773748134368e-09
6800 9.387228138563319e-10
6900 8.774743194288929e-10
7000 8.29784198190786e-10
7100 7.839481500138141e-10
7200 7.312298887495042e-10
7300 6.805600900603683e-10
7400 6.222587236241537e-10
7500 5.689104517131682e-10
7600 5.097358019927661e-10
7700 4.5559139658951764e-10
7800 3.9509641740042945e-10
7900 3.3985940017500647e-10
8000 2.7914835479583303e-10
8100 2.2423497744453579e-10
8200 1.6376332764179824e-10
8300 1.088924453334882e-10
8400 4.877103290911384e-11
8500 0.0
8600 0.0
8700 0.0
8800 0.0
8900 0.0
9000 0.0
9100 0.0
9200 0.0
9300 0.0
9400 0.0
9500 0.0
9600 0.0
9700 0.0
9800 0.0
9900 0.0
10000 0.0
10100 0.0
10200 0.0
10300 0.0
10400 0.0
10500 0.0
10600 0.0
10700 0.0
10800 0.0
10900 0.0
11000 0.0
11100 0.0
11200 0.0
11300 0.0
11400 0.0
11500 0.0
11600 0.0
11700 0.0
11800 0.0
11900 0.0
12000 0.0
12100 0.0
12200 0.0
12300 0.0
12400 0.0
12500 0.0
12600 0.0
12700 0.0
12800 0.0
12900 0.0
13000 0.0
13100 0.0
13200 0.0
13300 0.0
13400 0.0
13500 0.0
13600 0.0
13700 0.0
13800 0.0
13900 0.0
14000 0.0
14100 0.0
14200 0.0
14300 0.0
14400 0.0
14500 0.0
14600 0.0
14700 0.0
14800 0.0
14900 0.0
15000 0.0
