
# Total neutron yield = 0.0  n/decay
	 f19 0.0
# Integral of spectrum = 1.9590109300735828e-07  n/decay
100 0.0
200 0.0
300 0.0
400 0.0
500 0.0
600 0.0
700 0.0
800 0.0
900 0.0
1000 0.0
1100 0.0
1200 0.0
1300 0.0
1400 0.0
1500 0.0
1600 0.0
1700 0.0
1800 0.0
1900 0.0
2000 0.0
2100 0.0
2200 0.0
2300 0.0
2400 0.0
2500 0.0
2600 0.0
2700 0.0
2800 0.0
2900 0.0
3000 0.0
3100 0.0
3200 0.0
3300 0.0
3400 0.0
3500 0.0
3600 0.0
3700 0.0
3800 0.0
3900 0.0
4000 0.0
4100 0.0
4200 0.0
4300 0.0
4400 2.961678895522942e-13
4500 4.3789342812249096e-12
4600 1.5781597646411115e-11
4700 3.479148996514048e-11
4800 5.946786605456953e-11
4900 9.20341497585493e-11
5000 9.64397720957179e-11
5100 9.611774941578091e-11
5200 9.555414351666046e-11
5300 9.477989493559053e-11
5400 9.38214400952854e-11
5500 9.270185701858103e-11
5600 9.144092675447392e-11
5700 9.005629581630262e-11
5800 8.856300069858127e-11
5900 8.69745885063583e-11
6000 8.530278025375201e-11
6100 8.355788524942356e-11
6200 8.174914242743528e-11
6300 7.988458105424313e-11
6400 7.797129867512727e-11
6500 7.60030960744128e-11
6600 7.298007064045228e-11
6700 6.843069968835803e-11
6800 6.1359420142634e-11
6900 5.282918726983959e-11
7000 4.1583787460804944e-11
7100 2.949051857059606e-11
7200 1.4668588117723652e-11
7300 0.0
7400 0.0
7500 0.0
7600 0.0
7700 0.0
7800 0.0
7900 0.0
8000 0.0
8100 0.0
8200 0.0
8300 0.0
8400 0.0
8500 0.0
8600 0.0
8700 0.0
8800 0.0
8900 0.0
9000 0.0
9100 0.0
9200 0.0
9300 0.0
9400 0.0
9500 0.0
9600 0.0
9700 0.0
9800 0.0
9900 0.0
10000 0.0
10100 0.0
10200 0.0
10300 0.0
10400 0.0
10500 0.0
10600 0.0
10700 0.0
10800 0.0
10900 0.0
11000 0.0
11100 0.0
11200 0.0
11300 0.0
11400 0.0
11500 0.0
11600 0.0
11700 0.0
11800 0.0
11900 0.0
12000 0.0
12100 0.0
12200 0.0
12300 0.0
12400 0.0
12500 0.0
12600 0.0
12700 0.0
12800 0.0
12900 0.0
13000 0.0
13100 0.0
13200 0.0
13300 0.0
13400 0.0
13500 0.0
13600 0.0
13700 0.0
13800 0.0
13900 0.0
14000 0.0
14100 0.0
14200 0.0
14300 0.0
14400 0.0
14500 0.0
14600 0.0
14700 0.0
14800 0.0
14900 0.0
15000 0.0
