
# Total neutron yield = 0.0  n/decay
	 f19 0.0
# Integral of spectrum = 3.32940682685924e-06  n/decay
100 0.0
200 0.0
300 0.0
400 0.0
500 0.0
600 0.0
700 0.0
800 0.0
900 0.0
1000 0.0
1100 0.0
1200 0.0
1300 0.0
1400 0.0
1500 0.0
1600 0.0
1700 0.0
1800 0.0
1900 0.0
2000 0.0
2100 0.0
2200 0.0
2300 0.0
2400 0.0
2500 0.0
2600 0.0
2700 0.0
2800 0.0
2900 0.0
3000 0.0
3100 0.0
3200 0.0
3300 0.0
3400 0.0
3500 0.0
3600 0.0
3700 0.0
3800 0.0
3900 0.0
4000 0.0
4100 0.0
4200 0.0
4300 0.0
4400 0.0
4500 0.0
4600 4.020180981149813e-11
4700 1.507280131378601e-10
4800 3.328374639841731e-10
4900 4.836425588149307e-10
5000 6.351682566403405e-10
5100 8.137431277911932e-10
5200 8.813314187303161e-10
5300 9.420284874970571e-10
5400 1.0043810876096514e-09
5500 1.060045828843081e-09
5600 1.1236866741579163e-09
5700 1.1796070747307247e-09
5800 1.2441106598586404e-09
5900 1.308868109422811e-09
6000 1.366694074617846e-09
6100 1.4329860401782899e-09
6200 1.493125566096343e-09
6300 1.4680315337944873e-09
6400 1.4344505034065092e-09
6500 1.3881692854114074e-09
6600 1.3191850609551144e-09
6700 1.236052911774208e-09
6800 1.1433898854658145e-09
6900 1.068929336631852e-09
7000 9.795815129864357e-10
7100 8.926425377226578e-10
7200 7.872345199553967e-10
7300 7.258106940007143e-10
7400 6.761724469585841e-10
7500 6.328593099021209e-10
7600 5.840873201343204e-10
7700 5.410697699489979e-10
7800 4.924069494193972e-10
7900 4.4991817712806665e-10
8000 4.020495421619032e-10
8100 3.598301104548401e-10
8200 3.119160664708366e-10
8300 2.6930452024811387e-10
8400 2.2100622349316254e-10
8500 1.774642250916799e-10
8600 1.2778218927876552e-10
8700 8.201890743414969e-11
8800 2.951847644019435e-11
8900 0.0
9000 0.0
9100 0.0
9200 0.0
9300 0.0
9400 0.0
9500 0.0
9600 0.0
9700 0.0
9800 0.0
9900 0.0
10000 0.0
10100 0.0
10200 0.0
10300 0.0
10400 0.0
10500 0.0
10600 0.0
10700 0.0
10800 0.0
10900 0.0
11000 0.0
11100 0.0
11200 0.0
11300 0.0
11400 0.0
11500 0.0
11600 0.0
11700 0.0
11800 0.0
11900 0.0
12000 0.0
12100 0.0
12200 0.0
12300 0.0
12400 0.0
12500 0.0
12600 0.0
12700 0.0
12800 0.0
12900 0.0
13000 0.0
13100 0.0
13200 0.0
13300 0.0
13400 0.0
13500 0.0
13600 0.0
13700 0.0
13800 0.0
13900 0.0
14000 0.0
14100 0.0
14200 0.0
14300 0.0
14400 0.0
14500 0.0
14600 0.0
14700 0.0
14800 0.0
14900 0.0
15000 0.0
