
# Total neutron yield = 0.0  n/decay
	 f19 0.0
# Integral of spectrum = 1.0537554037438133e-07  n/decay
100 0.0
200 0.0
300 0.0
400 0.0
500 0.0
600 0.0
700 0.0
800 0.0
900 0.0
1000 0.0
1100 0.0
1200 0.0
1300 0.0
1400 0.0
1500 0.0
1600 0.0
1700 0.0
1800 0.0
1900 0.0
2000 0.0
2100 0.0
2200 0.0
2300 0.0
2400 0.0
2500 0.0
2600 0.0
2700 0.0
2800 0.0
2900 0.0
3000 0.0
3100 0.0
3200 0.0
3300 0.0
3400 0.0
3500 0.0
3600 0.0
3700 0.0
3800 0.0
3900 0.0
4000 0.0
4100 0.0
4200 0.0
4300 0.0
4400 1.255351547346966e-12
4500 1.1735234782964004e-11
4600 3.284376393821864e-11
4700 5.859961695302572e-11
4800 5.885699270257257e-11
4900 5.539896729026595e-11
5000 5.2439079461081925e-11
5100 4.9920381686661316e-11
5200 4.779352417093833e-11
5300 4.60161536038857e-11
5400 4.455085948550355e-11
5500 4.336538376160624e-11
5600 4.2431708535909154e-11
5700 4.17249593576414e-11
5800 4.122351197898895e-11
5900 4.090845284238183e-11
6000 4.076296704562039e-11
6100 4.077217984347231e-11
6200 4.0923077313501806e-11
6300 4.120408101199485e-11
6400 4.1604881930423484e-11
6500 4.211627867643792e-11
6600 4.140092320023957e-11
6700 3.7916275578713436e-11
6800 3.0474929849539254e-11
6900 2.053423544712294e-11
7000 6.98163174775506e-12
7100 0.0
7200 0.0
7300 0.0
7400 0.0
7500 0.0
7600 0.0
7700 0.0
7800 0.0
7900 0.0
8000 0.0
8100 0.0
8200 0.0
8300 0.0
8400 0.0
8500 0.0
8600 0.0
8700 0.0
8800 0.0
8900 0.0
9000 0.0
9100 0.0
9200 0.0
9300 0.0
9400 0.0
9500 0.0
9600 0.0
9700 0.0
9800 0.0
9900 0.0
10000 0.0
10100 0.0
10200 0.0
10300 0.0
10400 0.0
10500 0.0
10600 0.0
10700 0.0
10800 0.0
10900 0.0
11000 0.0
11100 0.0
11200 0.0
11300 0.0
11400 0.0
11500 0.0
11600 0.0
11700 0.0
11800 0.0
11900 0.0
12000 0.0
12100 0.0
12200 0.0
12300 0.0
12400 0.0
12500 0.0
12600 0.0
12700 0.0
12800 0.0
12900 0.0
13000 0.0
13100 0.0
13200 0.0
13300 0.0
13400 0.0
13500 0.0
13600 0.0
13700 0.0
13800 0.0
13900 0.0
14000 0.0
14100 0.0
14200 0.0
14300 0.0
14400 0.0
14500 0.0
14600 0.0
14700 0.0
14800 0.0
14900 0.0
15000 0.0
