
# Total neutron yield = 0.0  n/decay
	 f19 0.0
# Integral of spectrum = 3.761549250076021e-06  n/decay
100 0.0
200 0.0
300 0.0
400 0.0
500 0.0
600 0.0
700 0.0
800 0.0
900 0.0
1000 0.0
1100 0.0
1200 0.0
1300 0.0
1400 0.0
1500 0.0
1600 0.0
1700 0.0
1800 0.0
1900 0.0
2000 0.0
2100 0.0
2200 0.0
2300 0.0
2400 0.0
2500 0.0
2600 0.0
2700 0.0
2800 0.0
2900 0.0
3000 0.0
3100 0.0
3200 0.0
3300 0.0
3400 0.0
3500 0.0
3600 0.0
3700 0.0
3800 0.0
3900 0.0
4000 0.0
4100 0.0
4200 0.0
4300 0.0
4400 0.0
4500 0.0
4600 1.7320002828953205e-11
4700 1.0019703628357594e-10
4800 2.3167556917619318e-10
4900 4.0692288014907887e-10
5000 6.163113912572986e-10
5100 7.70509713626716e-10
5200 9.177724644195494e-10
5300 1.0549302928399022e-09
5400 1.1601110217162832e-09
5500 1.205958137421403e-09
5600 1.2473603511094153e-09
5700 1.2982883535124862e-09
5800 1.3509478089494102e-09
5900 1.3980517714681006e-09
6000 1.4538114678161792e-09
6100 1.5040284923653053e-09
6200 1.5622833444394222e-09
6300 1.6215205059773535e-09
6400 1.661300765281678e-09
6500 1.6385608109290825e-09
6600 1.5473904455659193e-09
6700 1.4570629354019844e-09
6800 1.3534497090011774e-09
6900 1.2512169918996182e-09
7000 1.128719529378258e-09
7100 1.037445375682583e-09
7200 9.485826150497582e-10
7300 8.670662039852305e-10
7400 7.740419798899637e-10
7500 6.873434839186448e-10
7600 6.331994853872846e-10
7700 5.947870688970378e-10
7800 5.521360750383304e-10
7900 5.14940295102561e-10
8000 4.729908178804424e-10
8100 4.362603602381706e-10
8200 3.947485109427916e-10
8300 3.582146156002181e-10
8400 3.1651095414497886e-10
8500 2.792989706835343e-10
8600 2.367070642410378e-10
8700 1.983256343278327e-10
8800 1.541845178116395e-10
8900 1.1357262754405897e-10
9000 6.667253955849362e-11
9100 2.2761512021270514e-11
9200 0.0
9300 0.0
9400 0.0
9500 0.0
9600 0.0
9700 0.0
9800 0.0
9900 0.0
10000 0.0
10100 0.0
10200 0.0
10300 0.0
10400 0.0
10500 0.0
10600 0.0
10700 0.0
10800 0.0
10900 0.0
11000 0.0
11100 0.0
11200 0.0
11300 0.0
11400 0.0
11500 0.0
11600 0.0
11700 0.0
11800 0.0
11900 0.0
12000 0.0
12100 0.0
12200 0.0
12300 0.0
12400 0.0
12500 0.0
12600 0.0
12700 0.0
12800 0.0
12900 0.0
13000 0.0
13100 0.0
13200 0.0
13300 0.0
13400 0.0
13500 0.0
13600 0.0
13700 0.0
13800 0.0
13900 0.0
14000 0.0
14100 0.0
14200 0.0
14300 0.0
14400 0.0
14500 0.0
14600 0.0
14700 0.0
14800 0.0
14900 0.0
15000 0.0
