
# Total neutron yield = 0.0  n/decay
	 f19 0.0
# Integral of spectrum = 5.192327162782791e-06  n/decay
100 0.0
200 0.0
300 0.0
400 0.0
500 0.0
600 0.0
700 0.0
800 0.0
900 0.0
1000 0.0
1100 0.0
1200 0.0
1300 0.0
1400 0.0
1500 0.0
1600 0.0
1700 0.0
1800 0.0
1900 0.0
2000 0.0
2100 0.0
2200 0.0
2300 0.0
2400 0.0
2500 0.0
2600 0.0
2700 0.0
2800 0.0
2900 0.0
3000 0.0
3100 0.0
3200 0.0
3300 0.0
3400 0.0
3500 0.0
3600 0.0
3700 0.0
3800 0.0
3900 0.0
4000 0.0
4100 0.0
4200 0.0
4300 0.0
4400 0.0
4500 0.0
4600 2.0955113683097822e-11
4700 1.209928151281999e-10
4800 2.7701093674772364e-10
4900 4.921941740463827e-10
5000 7.56697932265736e-10
5100 9.498281088340164e-10
5200 1.1545966344666066e-09
5300 1.3702767862476491e-09
5400 1.5014574323424852e-09
5500 1.5915386309232944e-09
5600 1.6735029407043213e-09
5700 1.7647727468972455e-09
5800 1.8551475911987602e-09
5900 1.935427759688942e-09
6000 2.023574213007766e-09
6100 2.1013222629313565e-09
6200 2.186000795586005e-09
6300 2.2689028021106634e-09
6400 2.3237566163087455e-09
6500 2.280397054438813e-09
6600 2.163442233930432e-09
6700 2.0431548003189793e-09
6800 1.9035439451419404e-09
6900 1.763545227871129e-09
7000 1.613029958745818e-09
7100 1.4820802772671844e-09
7200 1.3688646950014297e-09
7300 1.2431300355070535e-09
7400 1.1257820781576872e-09
7500 9.93665414394227e-10
7600 9.324886284552314e-10
7700 8.664138248181457e-10
7800 8.073648542862491e-10
7900 7.42706758691624e-10
8000 6.846321803579573e-10
8100 6.207801372434158e-10
8200 5.637603459029091e-10
8300 5.00772866041794e-10
8400 4.441418431709141e-10
8500 3.8115431982846077e-10
8600 3.244188256488778e-10
8700 2.613818579795339e-10
8800 2.0421333293401923e-10
8900 1.4047818459262378e-10
9000 8.227354907203089e-11
9100 1.7698104910420526e-11
9200 0.0
9300 0.0
9400 0.0
9500 0.0
9600 0.0
9700 0.0
9800 0.0
9900 0.0
10000 0.0
10100 0.0
10200 0.0
10300 0.0
10400 0.0
10500 0.0
10600 0.0
10700 0.0
10800 0.0
10900 0.0
11000 0.0
11100 0.0
11200 0.0
11300 0.0
11400 0.0
11500 0.0
11600 0.0
11700 0.0
11800 0.0
11900 0.0
12000 0.0
12100 0.0
12200 0.0
12300 0.0
12400 0.0
12500 0.0
12600 0.0
12700 0.0
12800 0.0
12900 0.0
13000 0.0
13100 0.0
13200 0.0
13300 0.0
13400 0.0
13500 0.0
13600 0.0
13700 0.0
13800 0.0
13900 0.0
14000 0.0
14100 0.0
14200 0.0
14300 0.0
14400 0.0
14500 0.0
14600 0.0
14700 0.0
14800 0.0
14900 0.0
15000 0.0
