
# Total neutron yield = 0.0  n/decay
	 li6 0.0
	 li7 0.0
# Integral of spectrum = 1.4721992295549432e-05  n/decay
100 1.150345797701002e-08
200 1.3548459268105225e-08
300 1.6026871580640143e-08
400 1.552816076764525e-08
500 1.1870378238738686e-08
600 9.69634531023004e-09
700 8.263100589813377e-09
800 7.242084365683033e-09
900 6.465022306327577e-09
1000 5.835251592274058e-09
1100 5.295126454775512e-09
1200 4.832584503020753e-09
1300 4.432846479352647e-09
1400 4.0738618271214585e-09
1500 3.760613745514748e-09
1600 3.4445294449185556e-09
1700 3.118971259403067e-09
1800 2.7726122562092994e-09
1900 2.408431878318062e-09
2000 2.0418678782576422e-09
2100 1.6546374744391083e-09
2200 1.3100568732226562e-09
2300 9.4850659853037e-10
2400 6.411863356148693e-10
2500 3.734963793348557e-10
2600 1.314615709932755e-10
2700 0.0
2800 0.0
2900 0.0
3000 0.0
3100 0.0
3200 0.0
3300 0.0
3400 0.0
3500 0.0
3600 0.0
3700 0.0
3800 0.0
3900 0.0
4000 0.0
4100 0.0
4200 0.0
4300 0.0
4400 0.0
4500 0.0
4600 0.0
4700 0.0
4800 0.0
4900 0.0
5000 0.0
5100 0.0
5200 0.0
5300 0.0
5400 0.0
5500 0.0
5600 0.0
5700 0.0
5800 0.0
5900 0.0
6000 0.0
6100 0.0
6200 0.0
6300 0.0
6400 0.0
6500 0.0
6600 0.0
6700 0.0
6800 0.0
6900 0.0
7000 0.0
7100 0.0
7200 0.0
7300 0.0
7400 0.0
7500 0.0
7600 0.0
7700 0.0
7800 0.0
7900 0.0
8000 0.0
8100 0.0
8200 0.0
8300 0.0
8400 0.0
8500 0.0
8600 0.0
8700 0.0
8800 0.0
8900 0.0
9000 0.0
9100 0.0
9200 0.0
9300 0.0
9400 0.0
9500 0.0
9600 0.0
9700 0.0
9800 0.0
9900 0.0
10000 0.0
10100 0.0
10200 0.0
10300 0.0
10400 0.0
10500 0.0
10600 0.0
10700 0.0
10800 0.0
10900 0.0
11000 0.0
11100 0.0
11200 0.0
11300 0.0
11400 0.0
11500 0.0
11600 0.0
11700 0.0
11800 0.0
11900 0.0
12000 0.0
12100 0.0
12200 0.0
12300 0.0
12400 0.0
12500 0.0
12600 0.0
12700 0.0
12800 0.0
12900 0.0
13000 0.0
13100 0.0
13200 0.0
13300 0.0
13400 0.0
13500 0.0
13600 0.0
13700 0.0
13800 0.0
13900 0.0
14000 0.0
14100 0.0
14200 0.0
14300 0.0
14400 0.0
14500 0.0
14600 0.0
14700 0.0
14800 0.0
14900 0.0
15000 0.0
