
# Total neutron yield = 0.0  n/decay
	 li6 0.0
	 li7 0.0
# Integral of spectrum = 3.4230931404141905e-05  n/decay
100 1.3022415593573251e-08
200 1.1970491441615819e-08
300 1.2086685898503524e-08
400 1.2622503243811749e-08
500 1.4882310071434785e-08
600 1.9573256872371784e-08
700 2.3273844332638752e-08
800 2.375387976562069e-08
900 2.082928919499834e-08
1000 1.8510201624235174e-08
1100 1.6545634859194376e-08
1200 1.4861013388817614e-08
1300 1.3434714012356941e-08
1400 1.2247937938908632e-08
1500 1.1243360262787287e-08
1600 1.0435104712522403e-08
1700 9.707308236956388e-09
1800 9.01487443375038e-09
1900 8.384198304581253e-09
2000 7.795419605292807e-09
2100 7.326561346827225e-09
2200 6.846698503872469e-09
2300 6.40396144376609e-09
2400 5.972182367240072e-09
2500 5.543596726770789e-09
2600 5.1126767185342194e-09
2700 4.604426051602133e-09
2800 4.034328238476204e-09
2900 3.4285453388717997e-09
3000 2.8226221011495066e-09
3100 2.230204761995205e-09
3200 1.7006426042284022e-09
3300 1.1522961138637907e-09
3400 6.671755271099421e-10
3500 2.689524031392959e-10
3600 0.0
3700 0.0
3800 0.0
3900 0.0
4000 0.0
4100 0.0
4200 0.0
4300 0.0
4400 0.0
4500 0.0
4600 0.0
4700 0.0
4800 0.0
4900 0.0
5000 0.0
5100 0.0
5200 0.0
5300 0.0
5400 0.0
5500 0.0
5600 0.0
5700 0.0
5800 0.0
5900 0.0
6000 0.0
6100 0.0
6200 0.0
6300 0.0
6400 0.0
6500 0.0
6600 0.0
6700 0.0
6800 0.0
6900 0.0
7000 0.0
7100 0.0
7200 0.0
7300 0.0
7400 0.0
7500 0.0
7600 0.0
7700 0.0
7800 0.0
7900 0.0
8000 0.0
8100 0.0
8200 0.0
8300 0.0
8400 0.0
8500 0.0
8600 0.0
8700 0.0
8800 0.0
8900 0.0
9000 0.0
9100 0.0
9200 0.0
9300 0.0
9400 0.0
9500 0.0
9600 0.0
9700 0.0
9800 0.0
9900 0.0
10000 0.0
10100 0.0
10200 0.0
10300 0.0
10400 0.0
10500 0.0
10600 0.0
10700 0.0
10800 0.0
10900 0.0
11000 0.0
11100 0.0
11200 0.0
11300 0.0
11400 0.0
11500 0.0
11600 0.0
11700 0.0
11800 0.0
11900 0.0
12000 0.0
12100 0.0
12200 0.0
12300 0.0
12400 0.0
12500 0.0
12600 0.0
12700 0.0
12800 0.0
12900 0.0
13000 0.0
13100 0.0
13200 0.0
13300 0.0
13400 0.0
13500 0.0
13600 0.0
13700 0.0
13800 0.0
13900 0.0
14000 0.0
14100 0.0
14200 0.0
14300 0.0
14400 0.0
14500 0.0
14600 0.0
14700 0.0
14800 0.0
14900 0.0
15000 0.0
