
# Total neutron yield = 0.0  n/decay
	 o16 0.0
	 o17 0.0
	 o18 0.0
# Integral of spectrum = 2.6052091720232385e-09  n/decay
100 0.0
200 0.0
300 0.0
400 0.0
500 0.0
600 0.0
700 0.0
800 0.0
900 0.0
1000 0.0
1100 0.0
1200 0.0
1300 0.0
1400 0.0
1500 0.0
1600 0.0
1700 0.0
1800 0.0
1900 0.0
2000 0.0
2100 0.0
2200 0.0
2300 0.0
2400 0.0
2500 0.0
2600 0.0
2700 0.0
2800 0.0
2900 0.0
3000 0.0
3100 0.0
3200 0.0
3300 0.0
3400 0.0
3500 0.0
3600 0.0
3700 0.0
3800 0.0
3900 0.0
4000 6.0234971270384675e-21
4100 2.2401664807767602e-14
4200 1.6244944266674127e-13
4300 3.5169629119118027e-13
4400 5.522909725453503e-13
4500 7.889458749112492e-13
4600 1.0119247888421287e-12
4700 1.1916182859696237e-12
4800 1.257142736133117e-12
4900 1.2582981273308753e-12
5000 1.2474375332679121e-12
5100 1.2273309278898761e-12
5200 1.2003761136259206e-12
5300 1.1722379986254103e-12
5400 1.1472542524526667e-12
5500 1.125135744372681e-12
5600 1.105620041306875e-12
5700 1.0884742374220614e-12
5800 1.0734890286217695e-12
5900 1.0604768548435178e-12
6000 1.0492698379799099e-12
6100 1.0384624169664449e-12
6200 9.956277391134487e-13
6300 9.221768697060055e-13
6400 8.384162806932667e-13
6500 7.389337764955103e-13
6600 6.453757138920964e-13
6700 5.324504089064741e-13
6800 4.273898242304534e-13
6900 3.088170945238537e-13
7000 2.0616485983083027e-13
7100 1.2518766847201712e-13
7200 7.150764653809439e-14
7300 4.702409219832833e-14
7400 2.958137850423753e-14
7500 1.8062493515897254e-14
7600 9.443568926401557e-15
7700 3.596574657727196e-15
7800 2.457954926182819e-18
7900 3.3275403945043297e-20
8000 2.5729821216880572e-20
8100 1.823129952367803e-20
8200 1.1855416284190177e-20
8300 5.1842837114131496e-21
8400 0.0
8500 0.0
8600 0.0
8700 0.0
8800 0.0
8900 0.0
9000 0.0
9100 0.0
9200 0.0
9300 0.0
9400 0.0
9500 0.0
9600 0.0
9700 0.0
9800 0.0
9900 0.0
10000 0.0
10100 0.0
10200 0.0
10300 0.0
10400 0.0
10500 0.0
10600 0.0
10700 0.0
10800 0.0
10900 0.0
11000 0.0
11100 0.0
11200 0.0
11300 0.0
11400 0.0
11500 0.0
11600 0.0
11700 0.0
11800 0.0
11900 0.0
12000 0.0
12100 0.0
12200 0.0
12300 0.0
12400 0.0
12500 0.0
12600 0.0
12700 0.0
12800 0.0
12900 0.0
13000 0.0
13100 0.0
13200 0.0
13300 0.0
13400 0.0
13500 0.0
13600 0.0
13700 0.0
13800 0.0
13900 0.0
14000 0.0
14100 0.0
14200 0.0
14300 0.0
14400 0.0
14500 0.0
14600 0.0
14700 0.0
14800 0.0
14900 0.0
15000 0.0
