
# Total neutron yield = 0.0  n/decay
	 o16 0.0
	 o17 0.0
	 o18 0.0
# Integral of spectrum = 1.2275386038288909e-09  n/decay
100 0.0
200 0.0
300 0.0
400 0.0
500 0.0
600 0.0
700 0.0
800 0.0
900 0.0
1000 0.0
1100 0.0
1200 0.0
1300 0.0
1400 0.0
1500 0.0
1600 0.0
1700 0.0
1800 0.0
1900 0.0
2000 0.0
2100 0.0
2200 0.0
2300 0.0
2400 0.0
2500 0.0
2600 0.0
2700 0.0
2800 0.0
2900 0.0
3000 0.0
3100 0.0
3200 0.0
3300 0.0
3400 0.0
3500 0.0
3600 0.0
3700 0.0
3800 0.0
3900 0.0
4000 2.928832774116556e-21
4100 9.751921707121834e-15
4200 8.491383572171298e-14
4300 1.8671531500692075e-13
4400 2.5032002529573913e-13
4500 3.2892739396705827e-13
4600 4.0707908237391186e-13
4700 4.833607082989088e-13
4800 5.289955998693416e-13
4900 5.533730956062458e-13
5000 5.633186049102014e-13
5100 5.61808579654112e-13
5200 5.580241331326893e-13
5300 5.530363421921087e-13
5400 5.427625624804126e-13
5500 5.316063221888119e-13
5600 5.217342665020943e-13
5700 5.13031499508381e-13
5800 5.053940803638306e-13
5900 4.98728445283329e-13
6000 4.929507806537946e-13
6100 4.874408444835738e-13
6200 4.672512729985064e-13
6300 4.267873929071732e-13
6400 3.7960039893033626e-13
6500 3.3551967648310034e-13
6600 3.0366012894263685e-13
6700 2.654687857390602e-13
6800 2.2823616254213e-13
6900 1.8563137589892778e-13
7000 1.4772138757899872e-13
7100 1.0939396369937736e-13
7200 7.94557791225289e-14
7300 5.861399130511807e-14
7400 4.120669815162558e-14
7500 2.9712913979731e-14
7600 2.112202563497619e-14
7700 1.530512882646199e-14
7800 9.886182728560844e-15
7900 5.419615834743415e-15
8000 2.119714855784582e-15
8100 0.0
8200 0.0
8300 0.0
8400 0.0
8500 0.0
8600 0.0
8700 0.0
8800 0.0
8900 0.0
9000 0.0
9100 0.0
9200 0.0
9300 0.0
9400 0.0
9500 0.0
9600 0.0
9700 0.0
9800 0.0
9900 0.0
10000 0.0
10100 0.0
10200 0.0
10300 0.0
10400 0.0
10500 0.0
10600 0.0
10700 0.0
10800 0.0
10900 0.0
11000 0.0
11100 0.0
11200 0.0
11300 0.0
11400 0.0
11500 0.0
11600 0.0
11700 0.0
11800 0.0
11900 0.0
12000 0.0
12100 0.0
12200 0.0
12300 0.0
12400 0.0
12500 0.0
12600 0.0
12700 0.0
12800 0.0
12900 0.0
13000 0.0
13100 0.0
13200 0.0
13300 0.0
13400 0.0
13500 0.0
13600 0.0
13700 0.0
13800 0.0
13900 0.0
14000 0.0
14100 0.0
14200 0.0
14300 0.0
14400 0.0
14500 0.0
14600 0.0
14700 0.0
14800 0.0
14900 0.0
15000 0.0
