
# Total neutron yield = 0.0  n/decay
	 o16 0.0
	 o17 0.0
	 o18 0.0
# Integral of spectrum = 5.9332097848301585e-09  n/decay
100 0.0
200 0.0
300 0.0
400 0.0
500 0.0
600 0.0
700 0.0
800 0.0
900 0.0
1000 0.0
1100 0.0
1200 0.0
1300 0.0
1400 0.0
1500 0.0
1600 0.0
1700 0.0
1800 0.0
1900 0.0
2000 0.0
2100 0.0
2200 0.0
2300 0.0
2400 0.0
2500 0.0
2600 0.0
2700 0.0
2800 0.0
2900 0.0
3000 0.0
3100 0.0
3200 0.0
3300 0.0
3400 0.0
3500 0.0
3600 0.0
3700 0.0
3800 0.0
3900 0.0
4000 2.928832774116556e-21
4100 1.0901264373797303e-14
4200 1.429238849498511e-13
4300 8.391466921454825e-13
4400 1.6585417149304326e-12
4500 2.1126381021438307e-12
4600 2.37351750448914e-12
4700 2.626165944036613e-12
4800 2.7537295334575065e-12
4900 2.747976417661914e-12
5000 2.673418587600988e-12
5100 2.618221970662423e-12
5200 2.574573739586456e-12
5300 2.5081948298369055e-12
5400 2.465880091595622e-12
5500 2.4560194882654555e-12
5600 2.4799197159162733e-12
5700 2.5283242882625906e-12
5800 2.601147742271657e-12
5900 2.6822662172081823e-12
6000 2.716378140300358e-12
6100 2.3631804405387387e-12
6200 2.0266309563885194e-12
6300 1.8084279535097722e-12
6400 1.5316819827368864e-12
6500 1.3781379674690761e-12
6600 1.1567227495590361e-12
6700 9.674393873114192e-13
6800 8.063378922399887e-13
6900 6.330662919472081e-13
7000 5.356144900761155e-13
7100 4.4568345883227e-13
7200 3.655328974287525e-13
7300 2.9817270639431275e-13
7400 2.2320563093436897e-13
7500 1.9123865366755117e-13
7600 1.6393320173950577e-13
7700 1.4481867925258286e-13
7800 1.2541777382393141e-13
7900 1.0921066771363245e-13
8000 9.162516343013546e-14
8100 7.860713662468402e-14
8200 6.822490764373082e-14
8300 6.020234128451215e-14
8400 5.138061731353601e-14
8500 4.4141238602285494e-14
8600 3.58052118779231e-14
8700 2.7845651551189998e-14
8800 1.81270354482836e-14
8900 1.0166114380663863e-14
9000 1.6327759566860186e-15
9100 0.0
9200 0.0
9300 0.0
9400 0.0
9500 0.0
9600 0.0
9700 0.0
9800 0.0
9900 0.0
10000 0.0
10100 0.0
10200 0.0
10300 0.0
10400 0.0
10500 0.0
10600 0.0
10700 0.0
10800 0.0
10900 0.0
11000 0.0
11100 0.0
11200 0.0
11300 0.0
11400 0.0
11500 0.0
11600 0.0
11700 0.0
11800 0.0
11900 0.0
12000 0.0
12100 0.0
12200 0.0
12300 0.0
12400 0.0
12500 0.0
12600 0.0
12700 0.0
12800 0.0
12900 0.0
13000 0.0
13100 0.0
13200 0.0
13300 0.0
13400 0.0
13500 0.0
13600 0.0
13700 0.0
13800 0.0
13900 0.0
14000 0.0
14100 0.0
14200 0.0
14300 0.0
14400 0.0
14500 0.0
14600 0.0
14700 0.0
14800 0.0
14900 0.0
15000 0.0
