
# Total neutron yield = 0.0  n/decay
	 b10 0.0
	 b11 0.0
# Integral of spectrum = 8.301303247726682e-07  n/decay
100 4.845619126219896e-12
200 5.6892118770236966e-12
300 5.0651292884907134e-12
400 1.089907271646218e-11
500 1.9126603720385876e-11
600 2.3240318002403265e-11
700 3.751805645692358e-11
800 5.7866930758223083e-11
900 9.209009510418712e-11
1000 1.2840676468644394e-10
1100 1.5283456375283078e-10
1200 1.9058910502029956e-10
1300 2.335285462555776e-10
1400 2.8592591979854516e-10
1500 3.3814028195676154e-10
1600 3.773722138857948e-10
1700 3.999995920468649e-10
1800 4.146452546176516e-10
1900 4.2011581902643317e-10
2000 4.2157178088041257e-10
2100 4.137060179685529e-10
2200 3.980339014197395e-10
2300 3.8028443086020796e-10
2400 3.5845947560460907e-10
2500 3.343246345646804e-10
2600 3.1180855404291383e-10
2700 2.9114333976600925e-10
2800 2.7045721210620124e-10
2900 2.4873267745860847e-10
3000 2.274003341195402e-10
3100 2.0831148986923373e-10
3200 1.8690668393807088e-10
3300 1.6556092568804783e-10
3400 1.4466126036300513e-10
3500 1.2524629766132323e-10
3600 1.073548358385694e-10
3700 9.113498240037646e-11
3800 7.776494169469637e-11
3900 6.639225667655963e-11
4000 5.615994570557966e-11
4100 4.716763986707587e-11
4200 3.9494400099703935e-11
4300 3.2406996397861776e-11
4400 2.6108399752294518e-11
4500 2.0359849667176063e-11
4600 1.5539710532491913e-11
4700 1.1726939623298612e-11
4800 8.4903572329088e-12
4900 6.545744388946681e-12
5000 4.826202787852378e-12
5100 3.224070333435332e-12
5200 1.7378042571421997e-12
5300 3.6001366907709055e-13
5400 1.405591057282212e-17
5500 1.1080114732529253e-17
5600 8.09525634007097e-18
5700 5.410612220053083e-18
5800 2.9874194721602483e-18
5900 7.636425799185356e-19
6000 0.0
6100 0.0
6200 0.0
6300 0.0
6400 0.0
6500 0.0
6600 0.0
6700 0.0
6800 0.0
6900 0.0
7000 0.0
7100 0.0
7200 0.0
7300 0.0
7400 0.0
7500 0.0
7600 0.0
7700 0.0
7800 0.0
7900 0.0
8000 0.0
8100 0.0
8200 0.0
8300 0.0
8400 0.0
8500 0.0
8600 0.0
8700 0.0
8800 0.0
8900 0.0
9000 0.0
9100 0.0
9200 0.0
9300 0.0
9400 0.0
9500 0.0
9600 0.0
9700 0.0
9800 0.0
9900 0.0
10000 0.0
10100 0.0
10200 0.0
10300 0.0
10400 0.0
10500 0.0
10600 0.0
10700 0.0
10800 0.0
10900 0.0
11000 0.0
11100 0.0
11200 0.0
11300 0.0
11400 0.0
11500 0.0
11600 0.0
11700 0.0
11800 0.0
11900 0.0
12000 0.0
12100 0.0
12200 0.0
12300 0.0
12400 0.0
12500 0.0
12600 0.0
12700 0.0
12800 0.0
12900 0.0
13000 0.0
13100 0.0
13200 0.0
13300 0.0
13400 0.0
13500 0.0
13600 0.0
13700 0.0
13800 0.0
13900 0.0
14000 0.0
14100 0.0
14200 0.0
14300 0.0
14400 0.0
14500 0.0
14600 0.0
14700 0.0
14800 0.0
14900 0.0
15000 0.0
