
# Total neutron yield = 0.0  n/decay
	 b10 0.0
	 b11 0.0
# Integral of spectrum = 8.367172587756955e-07  n/decay
100 4.015149277935057e-11
200 1.30199609146885e-10
300 1.72006953935376e-10
400 2.141018188829563e-10
500 2.7544302896908996e-10
600 3.5754757367449417e-10
700 4.317997417058818e-10
800 4.797472577581172e-10
900 4.970257368495917e-10
1000 4.974179783815992e-10
1100 4.943269389818584e-10
1200 4.852541753025619e-10
1300 4.6439616374249563e-10
1400 4.3906369443600045e-10
1500 4.1334535855639187e-10
1600 3.782383336664571e-10
1700 3.4470891438506397e-10
1800 3.121982830594791e-10
1900 2.8063301350770753e-10
2000 2.485768626823687e-10
2100 2.199015219875323e-10
2200 1.9160054456760701e-10
2300 1.6703339628738458e-10
2400 1.43109106321797e-10
2500 1.2225196641831656e-10
2600 1.0648064136433012e-10
2700 9.087558896396639e-11
2800 7.726325304234903e-11
2900 6.598917956143148e-11
3000 5.452405749996832e-11
3100 4.423384215675308e-11
3200 3.5413671342278345e-11
3300 2.6623008352348738e-11
3400 2.0359429155302492e-11
3500 1.478048955907306e-11
3600 1.183360557113223e-11
3700 8.773643724637433e-12
3800 5.884854077609822e-12
3900 3.1800640358304337e-12
4000 8.77712423203604e-13
4100 2.6736753842177762e-17
4200 2.0814901355106127e-17
4300 1.5276123546281966e-17
4400 1.024660652490149e-17
4500 6.0529119133866786e-18
4600 1.8130750754314505e-18
4700 0.0
4800 0.0
4900 0.0
5000 0.0
5100 0.0
5200 0.0
5300 0.0
5400 0.0
5500 0.0
5600 0.0
5700 0.0
5800 0.0
5900 0.0
6000 0.0
6100 0.0
6200 0.0
6300 0.0
6400 0.0
6500 0.0
6600 0.0
6700 0.0
6800 0.0
6900 0.0
7000 0.0
7100 0.0
7200 0.0
7300 0.0
7400 0.0
7500 0.0
7600 0.0
7700 0.0
7800 0.0
7900 0.0
8000 0.0
8100 0.0
8200 0.0
8300 0.0
8400 0.0
8500 0.0
8600 0.0
8700 0.0
8800 0.0
8900 0.0
9000 0.0
9100 0.0
9200 0.0
9300 0.0
9400 0.0
9500 0.0
9600 0.0
9700 0.0
9800 0.0
9900 0.0
10000 0.0
10100 0.0
10200 0.0
10300 0.0
10400 0.0
10500 0.0
10600 0.0
10700 0.0
10800 0.0
10900 0.0
11000 0.0
11100 0.0
11200 0.0
11300 0.0
11400 0.0
11500 0.0
11600 0.0
11700 0.0
11800 0.0
11900 0.0
12000 0.0
12100 0.0
12200 0.0
12300 0.0
12400 0.0
12500 0.0
12600 0.0
12700 0.0
12800 0.0
12900 0.0
13000 0.0
13100 0.0
13200 0.0
13300 0.0
13400 0.0
13500 0.0
13600 0.0
13700 0.0
13800 0.0
13900 0.0
14000 0.0
14100 0.0
14200 0.0
14300 0.0
14400 0.0
14500 0.0
14600 0.0
14700 0.0
14800 0.0
14900 0.0
15000 0.0
