
# Total neutron yield = 0.0  n/decay
	 b10 0.0
	 b11 0.0
# Integral of spectrum = 1.2520061859332665e-06  n/decay
100 4.5250017355420295e-10
200 5.372625943769926e-10
300 4.4815609914177905e-10
400 4.694936958213013e-10
500 5.204480098621354e-10
600 6.197420678860515e-10
700 6.90705645538147e-10
800 7.109385330952816e-10
900 7.028591372846363e-10
1000 6.825335275307289e-10
1100 6.622116979712137e-10
1200 6.309588859174455e-10
1300 5.873720153574339e-10
1400 5.521757189849188e-10
1500 5.177511215857588e-10
1600 4.682246118363973e-10
1700 4.2794891343727646e-10
1800 3.88693679259593e-10
1900 3.4801377383569183e-10
2000 3.1098384846630683e-10
2100 2.7366330857092366e-10
2200 2.413704932910321e-10
2300 2.0845178449172174e-10
2400 1.7851162056559774e-10
2500 1.5606307499396347e-10
2600 1.3502264323287158e-10
2700 1.172603572862245e-10
2800 1.006428821477147e-10
2900 8.514082434846625e-11
3000 7.186284799607632e-11
3100 5.8186896974526514e-11
3200 4.52254595947059e-11
3300 3.4132190816462026e-11
3400 2.6813243187741785e-11
3500 2.0107432030887253e-11
3600 1.577058173282714e-11
3700 1.1495411631804624e-11
3800 7.719720343933244e-12
3900 3.64235523948136e-12
4000 4.874444867457096e-15
4100 3.600990364464669e-17
4200 2.86024943740382e-17
4300 2.0821597099098288e-17
4400 1.3569014901012265e-17
4500 6.664536439800598e-18
4600 0.0
4700 0.0
4800 0.0
4900 0.0
5000 0.0
5100 0.0
5200 0.0
5300 0.0
5400 0.0
5500 0.0
5600 0.0
5700 0.0
5800 0.0
5900 0.0
6000 0.0
6100 0.0
6200 0.0
6300 0.0
6400 0.0
6500 0.0
6600 0.0
6700 0.0
6800 0.0
6900 0.0
7000 0.0
7100 0.0
7200 0.0
7300 0.0
7400 0.0
7500 0.0
7600 0.0
7700 0.0
7800 0.0
7900 0.0
8000 0.0
8100 0.0
8200 0.0
8300 0.0
8400 0.0
8500 0.0
8600 0.0
8700 0.0
8800 0.0
8900 0.0
9000 0.0
9100 0.0
9200 0.0
9300 0.0
9400 0.0
9500 0.0
9600 0.0
9700 0.0
9800 0.0
9900 0.0
10000 0.0
10100 0.0
10200 0.0
10300 0.0
10400 0.0
10500 0.0
10600 0.0
10700 0.0
10800 0.0
10900 0.0
11000 0.0
11100 0.0
11200 0.0
11300 0.0
11400 0.0
11500 0.0
11600 0.0
11700 0.0
11800 0.0
11900 0.0
12000 0.0
12100 0.0
12200 0.0
12300 0.0
12400 0.0
12500 0.0
12600 0.0
12700 0.0
12800 0.0
12900 0.0
13000 0.0
13100 0.0
13200 0.0
13300 0.0
13400 0.0
13500 0.0
13600 0.0
13700 0.0
13800 0.0
13900 0.0
14000 0.0
14100 0.0
14200 0.0
14300 0.0
14400 0.0
14500 0.0
14600 0.0
14700 0.0
14800 0.0
14900 0.0
15000 0.0
