
# Total neutron yield = 0.0  n/decay
	 b10 0.0
	 b11 0.0
# Integral of spectrum = 8.796339965282273e-06  n/decay
100 8.492308267560304e-09
200 7.2009599755031395e-09
300 7.88157930354928e-09
400 7.369676040629398e-09
500 6.8554403280546855e-09
600 6.694061633829699e-09
700 6.311098399596745e-09
800 5.528347045087196e-09
900 4.650739901628391e-09
1000 4.063442428765637e-09
1100 3.6128164102192755e-09
1200 3.2290147503714575e-09
1300 2.8037909065390122e-09
1400 2.3195508535960906e-09
1500 1.9414293125835775e-09
1600 1.6588364764810265e-09
1700 1.4270563777997966e-09
1800 1.2232104353721187e-09
1900 1.067918207401481e-09
2000 8.871096890763883e-10
2100 7.197638255102102e-10
2200 5.523757758577539e-10
2300 4.3097398161770043e-10
2400 3.0886999945673273e-10
2500 1.6593174737862104e-10
2600 1.064820166669106e-10
2700 9.087675623534104e-11
2800 7.726413891963596e-11
2900 6.598976123029518e-11
3000 5.452437093052723e-11
3100 4.4233976192498396e-11
3200 3.5413671342278345e-11
3300 2.6623008352348738e-11
3400 2.0359429155302492e-11
3500 1.478048955907306e-11
3600 1.183360557113223e-11
3700 8.773643724637433e-12
3800 5.884854077609822e-12
3900 3.1800640358304337e-12
4000 8.77712423203604e-13
4100 2.6736753842177762e-17
4200 2.0814901355106127e-17
4300 1.5276123546281966e-17
4400 1.024660652490149e-17
4500 6.0529119133866786e-18
4600 1.8130750754314505e-18
4700 0.0
4800 0.0
4900 0.0
5000 0.0
5100 0.0
5200 0.0
5300 0.0
5400 0.0
5500 0.0
5600 0.0
5700 0.0
5800 0.0
5900 0.0
6000 0.0
6100 0.0
6200 0.0
6300 0.0
6400 0.0
6500 0.0
6600 0.0
6700 0.0
6800 0.0
6900 0.0
7000 0.0
7100 0.0
7200 0.0
7300 0.0
7400 0.0
7500 0.0
7600 0.0
7700 0.0
7800 0.0
7900 0.0
8000 0.0
8100 0.0
8200 0.0
8300 0.0
8400 0.0
8500 0.0
8600 0.0
8700 0.0
8800 0.0
8900 0.0
9000 0.0
9100 0.0
9200 0.0
9300 0.0
9400 0.0
9500 0.0
9600 0.0
9700 0.0
9800 0.0
9900 0.0
10000 0.0
10100 0.0
10200 0.0
10300 0.0
10400 0.0
10500 0.0
10600 0.0
10700 0.0
10800 0.0
10900 0.0
11000 0.0
11100 0.0
11200 0.0
11300 0.0
11400 0.0
11500 0.0
11600 0.0
11700 0.0
11800 0.0
11900 0.0
12000 0.0
12100 0.0
12200 0.0
12300 0.0
12400 0.0
12500 0.0
12600 0.0
12700 0.0
12800 0.0
12900 0.0
13000 0.0
13100 0.0
13200 0.0
13300 0.0
13400 0.0
13500 0.0
13600 0.0
13700 0.0
13800 0.0
13900 0.0
14000 0.0
14100 0.0
14200 0.0
14300 0.0
14400 0.0
14500 0.0
14600 0.0
14700 0.0
14800 0.0
14900 0.0
15000 0.0
