
# Total neutron yield = 0.0  n/decay
	 b10 0.0
	 b11 0.0
# Integral of spectrum = 9.700807185091898e-06  n/decay
100 2.2181000533860064e-11
200 4.954907776672764e-11
300 7.837169374629199e-11
400 3.1324698632146925e-10
500 1.9063879704011465e-09
600 3.1173406032186327e-09
700 5.0301327513508285e-09
800 7.422868342816135e-09
900 6.799058232900687e-09
1000 7.005479245406338e-09
1100 6.776952164594155e-09
1200 6.3086478908387736e-09
1300 5.964869399877914e-09
1400 5.716596716961717e-09
1500 5.3536422679775344e-09
1600 4.90582385687308e-09
1700 4.544337158418536e-09
1800 4.207763342992045e-09
1900 3.753210145955465e-09
2000 3.2177351299191035e-09
2100 2.5594985706739327e-09
2200 1.759435618417207e-09
2300 1.6058242489688257e-09
2400 1.438363119131501e-09
2500 1.2369819637052102e-09
2600 9.545741614872257e-10
2700 7.427284451078282e-10
2800 6.120979015514804e-10
2900 5.295104618555528e-10
3000 4.773806974096938e-10
3100 4.309981201537148e-10
3200 3.8274558278898166e-10
3300 3.2537201963242734e-10
3400 2.6980493484503836e-10
3500 2.2546433798450106e-10
3600 1.8978617596135605e-10
3700 1.59955488906776e-10
3800 1.3559970193160902e-10
3900 1.1248167312008485e-10
4000 9.102969442119234e-11
4100 7.253711398874504e-11
4200 5.7197971216535475e-11
4300 4.2893112399005186e-11
4400 2.8805775468295262e-11
4500 2.03599304431901e-11
4600 1.5539776747043315e-11
4700 1.1726988214356832e-11
4800 8.490386391566657e-12
4900 6.545760367074814e-12
5000 4.826208105929052e-12
5100 3.224070333435332e-12
5200 1.7378042571421997e-12
5300 3.6001366907709055e-13
5400 1.405591057282212e-17
5500 1.1080114732529253e-17
5600 8.09525634007097e-18
5700 5.410612220053083e-18
5800 2.9874194721602483e-18
5900 7.636425799185356e-19
6000 0.0
6100 0.0
6200 0.0
6300 0.0
6400 0.0
6500 0.0
6600 0.0
6700 0.0
6800 0.0
6900 0.0
7000 0.0
7100 0.0
7200 0.0
7300 0.0
7400 0.0
7500 0.0
7600 0.0
7700 0.0
7800 0.0
7900 0.0
8000 0.0
8100 0.0
8200 0.0
8300 0.0
8400 0.0
8500 0.0
8600 0.0
8700 0.0
8800 0.0
8900 0.0
9000 0.0
9100 0.0
9200 0.0
9300 0.0
9400 0.0
9500 0.0
9600 0.0
9700 0.0
9800 0.0
9900 0.0
10000 0.0
10100 0.0
10200 0.0
10300 0.0
10400 0.0
10500 0.0
10600 0.0
10700 0.0
10800 0.0
10900 0.0
11000 0.0
11100 0.0
11200 0.0
11300 0.0
11400 0.0
11500 0.0
11600 0.0
11700 0.0
11800 0.0
11900 0.0
12000 0.0
12100 0.0
12200 0.0
12300 0.0
12400 0.0
12500 0.0
12600 0.0
12700 0.0
12800 0.0
12900 0.0
13000 0.0
13100 0.0
13200 0.0
13300 0.0
13400 0.0
13500 0.0
13600 0.0
13700 0.0
13800 0.0
13900 0.0
14000 0.0
14100 0.0
14200 0.0
14300 0.0
14400 0.0
14500 0.0
14600 0.0
14700 0.0
14800 0.0
14900 0.0
15000 0.0
