
# Total neutron yield = 0.0  n/decay
	 na23 0.0
# Integral of spectrum = 2.2743234396770385e-06  n/decay
100 0.0
200 0.0
300 0.0
400 0.0
500 0.0
600 0.0
700 0.0
800 0.0
900 0.0
1000 0.0
1100 0.0
1200 0.0
1300 0.0
1400 0.0
1500 0.0
1600 0.0
1700 0.0
1800 0.0
1900 0.0
2000 0.0
2100 0.0
2200 0.0
2300 0.0
2400 0.0
2500 0.0
2600 0.0
2700 0.0
2800 0.0
2900 0.0
3000 0.0
3100 0.0
3200 0.0
3300 0.0
3400 0.0
3500 0.0
3600 0.0
3700 0.0
3800 0.0
3900 0.0
4000 0.0
4100 0.0
4200 0.0
4300 0.0
4400 0.0
4500 0.0
4600 0.0
4700 0.0
4800 0.0
4900 0.0
5000 0.0
5100 0.0
5200 0.0
5300 0.0
5400 0.0
5500 0.0
5600 1.3231959598843331e-11
5700 8.53487862109232e-11
5800 1.9552984591274002e-10
5900 3.486649609587803e-10
6000 4.914705709123532e-10
6100 6.488497480919558e-10
6200 7.963044787320199e-10
6300 9.337452031238399e-10
6400 1.0247064046563675e-09
6500 1.0604437108526508e-09
6600 1.0979144088117366e-09
6700 1.1307678311136122e-09
6800 1.16782828355717e-09
6900 1.141834907395602e-09
7000 1.119764033275712e-09
7100 1.1013181773841005e-09
7200 1.086174832111969e-09
7300 1.074052445411497e-09
7400 1.0522652956235099e-09
7500 1.010121242684352e-09
7600 9.556781673354003e-10
7700 8.755615631207344e-10
7800 7.920363828611251e-10
7900 7.01188382962516e-10
8000 6.14319633866331e-10
8100 5.276125918175909e-10
8200 4.2862796951402674e-10
8300 3.3801086458835443e-10
8400 2.6138052125971095e-10
8500 2.0229282417652705e-10
8600 1.619416898422761e-10
8700 1.2618051802466916e-10
8800 9.381715755788532e-11
8900 5.823421419772156e-11
9000 2.5978177444787273e-11
9100 3.552807692333085e-14
9200 3.555358536204827e-16
9300 2.8903044284826987e-16
9400 2.1545603496225999e-16
9500 1.4887471697254948e-16
9600 7.480701012224593e-17
9700 0.0
9800 0.0
9900 0.0
10000 0.0
10100 0.0
10200 0.0
10300 0.0
10400 0.0
10500 0.0
10600 0.0
10700 0.0
10800 0.0
10900 0.0
11000 0.0
11100 0.0
11200 0.0
11300 0.0
11400 0.0
11500 0.0
11600 0.0
11700 0.0
11800 0.0
11900 0.0
12000 0.0
12100 0.0
12200 0.0
12300 0.0
12400 0.0
12500 0.0
12600 0.0
12700 0.0
12800 0.0
12900 0.0
13000 0.0
13100 0.0
13200 0.0
13300 0.0
13400 0.0
13500 0.0
13600 0.0
13700 0.0
13800 0.0
13900 0.0
14000 0.0
14100 0.0
14200 0.0
14300 0.0
14400 0.0
14500 0.0
14600 0.0
14700 0.0
14800 0.0
14900 0.0
15000 0.0
