
# Total neutron yield = 0.0  n/decay
	 li6 0.0
	 li7 0.0
# Integral of spectrum = 1.8481954784258486e-05  n/decay
100 3.2444497803337024e-08
200 2.462749049774373e-08
300 2.2743007847601888e-08
400 1.6140225365872057e-08
500 1.2688361421291063e-08
600 1.0587886785313058e-08
700 9.169871431248459e-09
800 8.13154287013958e-09
900 7.312774568283011e-09
1000 6.5756572197088275e-09
1100 5.8271812416432835e-09
1200 5.140436166238592e-09
1300 4.524083743726697e-09
1400 3.94585074668629e-09
1500 3.4370909714671386e-09
1600 2.88213309132103e-09
1700 2.4159580858380424e-09
1800 1.9095954808399525e-09
1900 1.5536057534915902e-09
2000 1.212499060642125e-09
2100 8.476457988635987e-10
2200 5.229653836056909e-10
2300 1.7902840973270333e-10
2400 1.5219381581484604e-13
2500 2.1703958621584787e-15
2600 1.5894246438387818e-15
2700 1.106810098686763e-15
2800 7.184125245804164e-16
2900 3.190905315503333e-16
3000 0.0
3100 0.0
3200 0.0
3300 0.0
3400 0.0
3500 0.0
3600 0.0
3700 0.0
3800 0.0
3900 0.0
4000 0.0
4100 0.0
4200 0.0
4300 0.0
4400 0.0
4500 0.0
4600 0.0
4700 0.0
4800 0.0
4900 0.0
5000 0.0
5100 0.0
5200 0.0
5300 0.0
5400 0.0
5500 0.0
5600 0.0
5700 0.0
5800 0.0
5900 0.0
6000 0.0
6100 0.0
6200 0.0
6300 0.0
6400 0.0
6500 0.0
6600 0.0
6700 0.0
6800 0.0
6900 0.0
7000 0.0
7100 0.0
7200 0.0
7300 0.0
7400 0.0
7500 0.0
7600 0.0
7700 0.0
7800 0.0
7900 0.0
8000 0.0
8100 0.0
8200 0.0
8300 0.0
8400 0.0
8500 0.0
8600 0.0
8700 0.0
8800 0.0
8900 0.0
9000 0.0
9100 0.0
9200 0.0
9300 0.0
9400 0.0
9500 0.0
9600 0.0
9700 0.0
9800 0.0
9900 0.0
10000 0.0
10100 0.0
10200 0.0
10300 0.0
10400 0.0
10500 0.0
10600 0.0
10700 0.0
10800 0.0
10900 0.0
11000 0.0
11100 0.0
11200 0.0
11300 0.0
11400 0.0
11500 0.0
11600 0.0
11700 0.0
11800 0.0
11900 0.0
12000 0.0
12100 0.0
12200 0.0
12300 0.0
12400 0.0
12500 0.0
12600 0.0
12700 0.0
12800 0.0
12900 0.0
13000 0.0
13100 0.0
13200 0.0
13300 0.0
13400 0.0
13500 0.0
13600 0.0
13700 0.0
13800 0.0
13900 0.0
14000 0.0
14100 0.0
14200 0.0
14300 0.0
14400 0.0
14500 0.0
14600 0.0
14700 0.0
14800 0.0
14900 0.0
15000 0.0
