
# Total neutron yield = 0.0  n/decay
	 f19 0.0
# Integral of spectrum = 4.208409909180611e-07  n/decay
100 0.0
200 0.0
300 0.0
400 0.0
500 0.0
600 0.0
700 0.0
800 0.0
900 0.0
1000 0.0
1100 0.0
1200 0.0
1300 0.0
1400 0.0
1500 0.0
1600 0.0
1700 0.0
1800 0.0
1900 0.0
2000 0.0
2100 0.0
2200 0.0
2300 0.0
2400 0.0
2500 0.0
2600 0.0
2700 0.0
2800 0.0
2900 0.0
3000 0.0
3100 0.0
3200 0.0
3300 0.0
3400 0.0
3500 0.0
3600 0.0
3700 0.0
3800 0.0
3900 0.0
4000 0.0
4100 0.0
4200 0.0
4300 0.0
4400 5.311464398335032e-12
4500 2.0436641902187737e-11
4600 4.5925640367821996e-11
4700 8.08149695108367e-11
4800 1.2181570232185234e-10
4900 1.7006801158992085e-10
5000 1.9779497040318823e-10
5100 1.9591008149954398e-10
5200 1.9373792517982452e-10
5300 1.913340895192248e-10
5400 1.8874293652995048e-10
5500 1.8599989444196328e-10
5600 1.8313350103682462e-10
5700 1.8016667129862725e-10
5800 1.7711807322186013e-10
5900 1.7400275258278594e-10
6000 1.708329705586882e-10
6100 1.6761862310752366e-10
6200 1.6436765509395517e-10
6300 1.610864103480759e-10
6400 1.5777982108553577e-10
6500 1.5445161870355367e-10
6600 1.508325837867515e-10
6700 1.4472011712372428e-10
6800 1.3509023038188498e-10
6900 1.2354983673713715e-10
7000 1.0866243615982335e-10
7100 9.269839836182167e-11
7200 7.294642856680615e-11
7300 5.283075165496014e-11
7400 2.9992055967570716e-11
7500 8.636645738050842e-12
7600 0.0
7700 0.0
7800 0.0
7900 0.0
8000 0.0
8100 0.0
8200 0.0
8300 0.0
8400 0.0
8500 0.0
8600 0.0
8700 0.0
8800 0.0
8900 0.0
9000 0.0
9100 0.0
9200 0.0
9300 0.0
9400 0.0
9500 0.0
9600 0.0
9700 0.0
9800 0.0
9900 0.0
10000 0.0
10100 0.0
10200 0.0
10300 0.0
10400 0.0
10500 0.0
10600 0.0
10700 0.0
10800 0.0
10900 0.0
11000 0.0
11100 0.0
11200 0.0
11300 0.0
11400 0.0
11500 0.0
11600 0.0
11700 0.0
11800 0.0
11900 0.0
12000 0.0
12100 0.0
12200 0.0
12300 0.0
12400 0.0
12500 0.0
12600 0.0
12700 0.0
12800 0.0
12900 0.0
13000 0.0
13100 0.0
13200 0.0
13300 0.0
13400 0.0
13500 0.0
13600 0.0
13700 0.0
13800 0.0
13900 0.0
14000 0.0
14100 0.0
14200 0.0
14300 0.0
14400 0.0
14500 0.0
14600 0.0
14700 0.0
14800 0.0
14900 0.0
15000 0.0
