
# Total neutron yield = 0.0  n/decay
	 f19 0.0
# Integral of spectrum = 2.441820798931443e-06  n/decay
100 0.0
200 0.0
300 0.0
400 0.0
500 0.0
600 0.0
700 0.0
800 0.0
900 0.0
1000 0.0
1100 0.0
1200 0.0
1300 0.0
1400 0.0
1500 0.0
1600 0.0
1700 0.0
1800 0.0
1900 0.0
2000 0.0
2100 0.0
2200 0.0
2300 0.0
2400 0.0
2500 0.0
2600 0.0
2700 0.0
2800 0.0
2900 0.0
3000 0.0
3100 0.0
3200 0.0
3300 0.0
3400 0.0
3500 0.0
3600 0.0
3700 0.0
3800 0.0
3900 0.0
4000 0.0
4100 0.0
4200 0.0
4300 0.0
4400 0.0
4500 1.6437304035649072e-11
4600 7.730418319027068e-11
4700 1.4969913074664924e-10
4800 2.387302842082876e-10
4900 3.395278393506245e-10
5000 4.273802322854385e-10
5100 4.785360606677844e-10
5200 5.291941376682858e-10
5300 5.849785286344483e-10
5400 6.378575885160058e-10
5500 6.953334293570654e-10
5600 7.516337178874256e-10
5700 8.023685144315454e-10
5800 8.559443237487482e-10
5900 9.027003280709218e-10
6000 9.511313047053338e-10
6100 9.929702347804582e-10
6200 1.0362901561072997e-09
6300 1.0458400537986299e-09
6400 1.0238323245641336e-09
6500 9.92757390989424e-10
6600 9.506427496263497e-10
6700 8.945395362809094e-10
6800 8.456821617342615e-10
6900 7.904162025734283e-10
7000 7.338105069159977e-10
7100 6.694662910659486e-10
7200 6.104485246765256e-10
7300 5.778118658256191e-10
7400 5.465558701576607e-10
7500 5.122563944139822e-10
7600 4.806388809607118e-10
7700 4.462249983489917e-10
7800 4.1444338599065854e-10
7900 3.795355428871485e-10
8000 3.4477411924620214e-10
8100 3.132808263935078e-10
8200 2.790546542633235e-10
8300 2.479777175547941e-10
8400 2.1409632152900336e-10
8500 1.8366059219813214e-10
8600 1.5079812243988878e-10
8700 1.2130814147191034e-10
8800 8.941623487891162e-11
8900 6.084332350288473e-11
9000 3.007795663325387e-11
9100 0.0
9200 0.0
9300 0.0
9400 0.0
9500 0.0
9600 0.0
9700 0.0
9800 0.0
9900 0.0
10000 0.0
10100 0.0
10200 0.0
10300 0.0
10400 0.0
10500 0.0
10600 0.0
10700 0.0
10800 0.0
10900 0.0
11000 0.0
11100 0.0
11200 0.0
11300 0.0
11400 0.0
11500 0.0
11600 0.0
11700 0.0
11800 0.0
11900 0.0
12000 0.0
12100 0.0
12200 0.0
12300 0.0
12400 0.0
12500 0.0
12600 0.0
12700 0.0
12800 0.0
12900 0.0
13000 0.0
13100 0.0
13200 0.0
13300 0.0
13400 0.0
13500 0.0
13600 0.0
13700 0.0
13800 0.0
13900 0.0
14000 0.0
14100 0.0
14200 0.0
14300 0.0
14400 0.0
14500 0.0
14600 0.0
14700 0.0
14800 0.0
14900 0.0
15000 0.0
