
# Total neutron yield = 0.0  n/decay
	 f19 0.0
# Integral of spectrum = 1.818461081962624e-08  n/decay
100 0.0
200 0.0
300 0.0
400 0.0
500 0.0
600 0.0
700 0.0
800 0.0
900 0.0
1000 0.0
1100 0.0
1200 0.0
1300 0.0
1400 0.0
1500 0.0
1600 0.0
1700 0.0
1800 0.0
1900 0.0
2000 0.0
2100 0.0
2200 0.0
2300 0.0
2400 0.0
2500 0.0
2600 0.0
2700 0.0
2800 0.0
2900 0.0
3000 0.0
3100 0.0
3200 0.0
3300 0.0
3400 0.0
3500 0.0
3600 0.0
3700 0.0
3800 0.0
3900 0.0
4000 0.0
4100 0.0
4200 0.0
4300 6.220103723920092e-13
4400 5.4951434111907e-12
4500 9.468585622077968e-12
4600 9.178796076410154e-12
4700 8.912850333306547e-12
4800 8.668469620278936e-12
4900 8.443670182538963e-12
5000 8.236624379776295e-12
5100 8.045734966827459e-12
5200 7.869599322344933e-12
5300 7.706939159852433e-12
5400 7.556602656847667e-12
5500 7.417588545117836e-12
5600 7.28897542610212e-12
5700 7.1699451751923795e-12
5800 7.059748499198215e-12
5900 6.9577203043954925e-12
6000 6.863244199777702e-12
6100 6.775768533324232e-12
6200 6.694784556208293e-12
6300 6.619841767816401e-12
6400 6.550521100975997e-12
6500 6.4864240324306455e-12
6600 6.42721618957996e-12
6700 5.7437392940624785e-12
6800 3.585564468236604e-12
6900 0.0
7000 0.0
7100 0.0
7200 0.0
7300 0.0
7400 0.0
7500 0.0
7600 0.0
7700 0.0
7800 0.0
7900 0.0
8000 0.0
8100 0.0
8200 0.0
8300 0.0
8400 0.0
8500 0.0
8600 0.0
8700 0.0
8800 0.0
8900 0.0
9000 0.0
9100 0.0
9200 0.0
9300 0.0
9400 0.0
9500 0.0
9600 0.0
9700 0.0
9800 0.0
9900 0.0
10000 0.0
10100 0.0
10200 0.0
10300 0.0
10400 0.0
10500 0.0
10600 0.0
10700 0.0
10800 0.0
10900 0.0
11000 0.0
11100 0.0
11200 0.0
11300 0.0
11400 0.0
11500 0.0
11600 0.0
11700 0.0
11800 0.0
11900 0.0
12000 0.0
12100 0.0
12200 0.0
12300 0.0
12400 0.0
12500 0.0
12600 0.0
12700 0.0
12800 0.0
12900 0.0
13000 0.0
13100 0.0
13200 0.0
13300 0.0
13400 0.0
13500 0.0
13600 0.0
13700 0.0
13800 0.0
13900 0.0
14000 0.0
14100 0.0
14200 0.0
14300 0.0
14400 0.0
14500 0.0
14600 0.0
14700 0.0
14800 0.0
14900 0.0
15000 0.0
