
# Total neutron yield = 0.0  n/decay
	 f19 0.0
# Integral of spectrum = 1.7753663539780326e-07  n/decay
100 0.0
200 0.0
300 0.0
400 0.0
500 0.0
600 0.0
700 0.0
800 0.0
900 0.0
1000 0.0
1100 0.0
1200 0.0
1300 0.0
1400 0.0
1500 0.0
1600 0.0
1700 0.0
1800 0.0
1900 0.0
2000 0.0
2100 0.0
2200 0.0
2300 0.0
2400 0.0
2500 0.0
2600 0.0
2700 0.0
2800 0.0
2900 0.0
3000 0.0
3100 0.0
3200 0.0
3300 0.0
3400 0.0
3500 0.0
3600 0.0
3700 0.0
3800 0.0
3900 0.0
4000 0.0
4100 0.0
4200 0.0
4300 6.788249251793251e-14
4400 5.554963156949578e-12
4500 1.9451684056943457e-11
4600 3.971934450743594e-11
4700 6.734629103489715e-11
4800 8.323078911620013e-11
4900 8.305286594338851e-11
5000 8.265137854589689e-11
5100 8.205818862199827e-11
5200 8.13002994203267e-11
5300 8.040063441763828e-11
5400 7.93789800013831e-11
5500 7.825210816901221e-11
5600 7.703437158462043e-11
5700 7.57382177698449e-11
5800 7.437420864933414e-11
5900 7.295144582503273e-11
6000 7.147774822023042e-11
6100 6.995984364235745e-11
6200 6.840352302558289e-11
6300 6.681372977577453e-11
6400 6.519474290179138e-11
6500 6.355027083034889e-11
6600 6.183928703839074e-11
6700 5.860031608669114e-11
6800 5.271570518913921e-11
6900 4.515131836345294e-11
7000 3.482272440411979e-11
7100 2.380317306498464e-11
7200 1.0470318121748186e-11
7300 0.0
7400 0.0
7500 0.0
7600 0.0
7700 0.0
7800 0.0
7900 0.0
8000 0.0
8100 0.0
8200 0.0
8300 0.0
8400 0.0
8500 0.0
8600 0.0
8700 0.0
8800 0.0
8900 0.0
9000 0.0
9100 0.0
9200 0.0
9300 0.0
9400 0.0
9500 0.0
9600 0.0
9700 0.0
9800 0.0
9900 0.0
10000 0.0
10100 0.0
10200 0.0
10300 0.0
10400 0.0
10500 0.0
10600 0.0
10700 0.0
10800 0.0
10900 0.0
11000 0.0
11100 0.0
11200 0.0
11300 0.0
11400 0.0
11500 0.0
11600 0.0
11700 0.0
11800 0.0
11900 0.0
12000 0.0
12100 0.0
12200 0.0
12300 0.0
12400 0.0
12500 0.0
12600 0.0
12700 0.0
12800 0.0
12900 0.0
13000 0.0
13100 0.0
13200 0.0
13300 0.0
13400 0.0
13500 0.0
13600 0.0
13700 0.0
13800 0.0
13900 0.0
14000 0.0
14100 0.0
14200 0.0
14300 0.0
14400 0.0
14500 0.0
14600 0.0
14700 0.0
14800 0.0
14900 0.0
15000 0.0
