
# Total neutron yield = 0.0  n/decay
	 f19 0.0
# Integral of spectrum = 1.8656434012994183e-06  n/decay
100 0.0
200 0.0
300 0.0
400 0.0
500 0.0
600 0.0
700 0.0
800 0.0
900 0.0
1000 0.0
1100 0.0
1200 0.0
1300 0.0
1400 0.0
1500 0.0
1600 0.0
1700 0.0
1800 0.0
1900 0.0
2000 0.0
2100 0.0
2200 0.0
2300 0.0
2400 0.0
2500 0.0
2600 0.0
2700 0.0
2800 0.0
2900 0.0
3000 0.0
3100 0.0
3200 0.0
3300 0.0
3400 0.0
3500 0.0
3600 0.0
3700 0.0
3800 0.0
3900 0.0
4000 0.0
4100 0.0
4200 0.0
4300 0.0
4400 0.0
4500 1.3234205489406723e-11
4600 6.254261820841474e-11
4700 1.2950074897855894e-10
4800 2.1186552150100004e-10
4900 2.9608589748941166e-10
5000 3.316205170435345e-10
5100 3.7479451380391716e-10
5200 4.1544443204450236e-10
5300 4.608898478729211e-10
5400 5.070848288815455e-10
5500 5.482031857708209e-10
5600 5.920870137119847e-10
5700 6.30974367978692e-10
5800 6.719004124946587e-10
5900 7.108415650654756e-10
6000 7.443797284102969e-10
6100 7.797160928987409e-10
6200 7.962871485815002e-10
6300 7.771677058158944e-10
6400 7.608693232412623e-10
6500 7.420388381912314e-10
6600 7.123376698061167e-10
6700 6.777281969944436e-10
6800 6.410300134509937e-10
6900 5.939274840755644e-10
7000 5.464456522452204e-10
7100 4.93062643863702e-10
7200 4.698342226138188e-10
7300 4.431591335344603e-10
7400 4.18112631196497e-10
7500 3.9058455164488464e-10
7600 3.6548042196398333e-10
7700 3.375542988392602e-10
7800 3.119890831475544e-10
7900 2.838428606054009e-10
8000 2.587165850286464e-10
8100 2.3110995814178613e-10
8200 2.063440804024908e-10
8300 1.7898329103511718e-10
8400 1.5196206744556629e-10
8500 1.2786303410114834e-10
8600 1.0142791007479127e-10
8700 7.769312230131676e-11
8800 5.160131832184691e-11
8900 2.811526868580303e-11
9000 0.0
9100 0.0
9200 0.0
9300 0.0
9400 0.0
9500 0.0
9600 0.0
9700 0.0
9800 0.0
9900 0.0
10000 0.0
10100 0.0
10200 0.0
10300 0.0
10400 0.0
10500 0.0
10600 0.0
10700 0.0
10800 0.0
10900 0.0
11000 0.0
11100 0.0
11200 0.0
11300 0.0
11400 0.0
11500 0.0
11600 0.0
11700 0.0
11800 0.0
11900 0.0
12000 0.0
12100 0.0
12200 0.0
12300 0.0
12400 0.0
12500 0.0
12600 0.0
12700 0.0
12800 0.0
12900 0.0
13000 0.0
13100 0.0
13200 0.0
13300 0.0
13400 0.0
13500 0.0
13600 0.0
13700 0.0
13800 0.0
13900 0.0
14000 0.0
14100 0.0
14200 0.0
14300 0.0
14400 0.0
14500 0.0
14600 0.0
14700 0.0
14800 0.0
14900 0.0
15000 0.0
