
# Total neutron yield = 0.0  n/decay
	 f19 0.0
# Integral of spectrum = 5.430238206467237e-06  n/decay
100 0.0
200 0.0
300 0.0
400 0.0
500 0.0
600 0.0
700 0.0
800 0.0
900 0.0
1000 0.0
1100 0.0
1200 0.0
1300 0.0
1400 0.0
1500 0.0
1600 0.0
1700 0.0
1800 0.0
1900 0.0
2000 0.0
2100 0.0
2200 0.0
2300 0.0
2400 0.0
2500 0.0
2600 0.0
2700 0.0
2800 0.0
2900 0.0
3000 0.0
3100 0.0
3200 0.0
3300 0.0
3400 0.0
3500 0.0
3600 0.0
3700 0.0
3800 0.0
3900 0.0
4000 0.0
4100 0.0
4200 0.0
4300 0.0
4400 0.0
4500 0.0
4600 6.701510595745112e-11
4700 2.501572905400412e-10
4800 5.202319487568505e-10
4900 8.295320657046973e-10
5000 1.058175435095176e-09
5100 1.3163067618193486e-09
5200 1.5411550935408508e-09
5300 1.7553628156035675e-09
5400 1.8396768339299687e-09
5500 1.9159516297733163e-09
5600 2.0078623277716126e-09
5700 1.990743424500517e-09
5800 1.9783513157434237e-09
5900 1.9795516438030614e-09
6000 1.988193070141621e-09
6100 2.0128533269306527e-09
6200 2.0430818077030972e-09
6300 2.0873184109406015e-09
6400 2.1253252828199483e-09
6500 2.125030835538383e-09
6600 2.080691579275964e-09
6700 2.01208076123072e-09
6800 1.9164766423423905e-09
6900 1.8179480820122922e-09
7000 1.6537312643045162e-09
7100 1.5147371148620926e-09
7200 1.3514495394270115e-09
7300 1.1986961278671253e-09
7400 1.0457182811843381e-09
7500 9.07548081875396e-10
7600 8.101470603004627e-10
7700 7.274602696188586e-10
7800 6.348439963678651e-10
7900 5.514632749955932e-10
8000 4.750161694690302e-10
8100 4.475380721425837e-10
8200 4.1740786429500044e-10
8300 3.91678699259844e-10
8400 3.6334095321765597e-10
8500 3.391545877911759e-10
8600 3.1224064686622666e-10
8700 2.8919093033689295e-10
8800 2.633717922541491e-10
8900 2.4117637964804793e-10
9000 2.161125839040977e-10
9100 1.943927006696612e-10
9200 1.6970053502641322e-10
9300 1.4808330797444218e-10
9400 1.2340017252313e-10
9500 1.0136665574493918e-10
9600 7.597513161406396e-11
9700 5.2683386583266436e-11
9800 2.568299307292813e-11
9900 0.0
10000 0.0
10100 0.0
10200 0.0
10300 0.0
10400 0.0
10500 0.0
10600 0.0
10700 0.0
10800 0.0
10900 0.0
11000 0.0
11100 0.0
11200 0.0
11300 0.0
11400 0.0
11500 0.0
11600 0.0
11700 0.0
11800 0.0
11900 0.0
12000 0.0
12100 0.0
12200 0.0
12300 0.0
12400 0.0
12500 0.0
12600 0.0
12700 0.0
12800 0.0
12900 0.0
13000 0.0
13100 0.0
13200 0.0
13300 0.0
13400 0.0
13500 0.0
13600 0.0
13700 0.0
13800 0.0
13900 0.0
14000 0.0
14100 0.0
14200 0.0
14300 0.0
14400 0.0
14500 0.0
14600 0.0
14700 0.0
14800 0.0
14900 0.0
15000 0.0
