
# Total neutron yield = 0.0  n/decay
	 f19 0.0
# Integral of spectrum = 1.116145827993743e-07  n/decay
100 0.0
200 0.0
300 0.0
400 0.0
500 0.0
600 0.0
700 0.0
800 0.0
900 0.0
1000 0.0
1100 0.0
1200 0.0
1300 0.0
1400 0.0
1500 0.0
1600 0.0
1700 0.0
1800 0.0
1900 0.0
2000 0.0
2100 0.0
2200 0.0
2300 0.0
2400 0.0
2500 0.0
2600 0.0
2700 0.0
2800 0.0
2900 0.0
3000 0.0
3100 0.0
3200 0.0
3300 0.0
3400 0.0
3500 0.0
3600 0.0
3700 0.0
3800 0.0
3900 0.0
4000 0.0
4100 0.0
4200 0.0
4300 1.7828375288279551e-13
4400 5.0809462533471956e-12
4500 1.7576695588807646e-11
4600 3.46980377579036e-11
4700 5.670894428471329e-11
4800 5.5049535348538616e-11
4900 5.3510480588714766e-11
5000 5.208570677304777e-11
5100 5.076864790461993e-11
5200 4.955261444731359e-11
5300 4.8430755067412936e-11
5400 4.7396555797003294e-11
5500 4.644359163373629e-11
5600 4.556574589213347e-11
5700 4.4757254741484876e-11
5800 4.401264641979913e-11
5900 4.332676138689498e-11
6000 4.269476132247513e-11
6100 4.211210403314464e-11
6200 4.157450598204085e-11
6300 4.1077966045730426e-11
6400 4.0618757075181216e-11
6500 4.019334579608813e-11
6600 3.9779285639438975e-11
6700 3.815145453855214e-11
6800 3.41780131605385e-11
6900 2.852798327918661e-11
7000 2.035748008654249e-11
7100 1.1736967396469931e-11
7200 0.0
7300 0.0
7400 0.0
7500 0.0
7600 0.0
7700 0.0
7800 0.0
7900 0.0
8000 0.0
8100 0.0
8200 0.0
8300 0.0
8400 0.0
8500 0.0
8600 0.0
8700 0.0
8800 0.0
8900 0.0
9000 0.0
9100 0.0
9200 0.0
9300 0.0
9400 0.0
9500 0.0
9600 0.0
9700 0.0
9800 0.0
9900 0.0
10000 0.0
10100 0.0
10200 0.0
10300 0.0
10400 0.0
10500 0.0
10600 0.0
10700 0.0
10800 0.0
10900 0.0
11000 0.0
11100 0.0
11200 0.0
11300 0.0
11400 0.0
11500 0.0
11600 0.0
11700 0.0
11800 0.0
11900 0.0
12000 0.0
12100 0.0
12200 0.0
12300 0.0
12400 0.0
12500 0.0
12600 0.0
12700 0.0
12800 0.0
12900 0.0
13000 0.0
13100 0.0
13200 0.0
13300 0.0
13400 0.0
13500 0.0
13600 0.0
13700 0.0
13800 0.0
13900 0.0
14000 0.0
14100 0.0
14200 0.0
14300 0.0
14400 0.0
14500 0.0
14600 0.0
14700 0.0
14800 0.0
14900 0.0
15000 0.0
