
# Total neutron yield = 0.0  n/decay
	 f19 0.0
# Integral of spectrum = 6.30011082569548e-07  n/decay
100 0.0
200 0.0
300 0.0
400 0.0
500 0.0
600 0.0
700 0.0
800 0.0
900 0.0
1000 0.0
1100 0.0
1200 0.0
1300 0.0
1400 0.0
1500 0.0
1600 0.0
1700 0.0
1800 0.0
1900 0.0
2000 0.0
2100 0.0
2200 0.0
2300 0.0
2400 0.0
2500 0.0
2600 0.0
2700 0.0
2800 0.0
2900 0.0
3000 0.0
3100 0.0
3200 0.0
3300 0.0
3400 0.0
3500 0.0
3600 0.0
3700 0.0
3800 0.0
3900 0.0
4000 0.0
4100 0.0
4200 0.0
4300 0.0
4400 1.897775074811362e-13
4500 2.8060997936832306e-12
4600 1.0113166301312007e-11
4700 2.2295105927850417e-11
4800 3.810824775070188e-11
4900 5.897740860718308e-11
5000 8.194163762042899e-11
5100 1.100132438039171e-10
5200 1.4069092032826156e-10
5300 1.706248741364978e-10
5400 2.0378769551390547e-10
5500 2.3665217400802384e-10
5600 2.810625078142793e-10
5700 2.790789188346151e-10
5800 2.7668036767592483e-10
5900 2.739067685172843e-10
6000 2.7079218321673024e-10
6100 2.6736636169031644e-10
6200 2.636564025918171e-10
6300 2.596874418396057e-10
6400 2.5548329091999804e-10
6500 2.510587516632314e-10
6600 2.457914149238382e-10
6700 2.393969953412746e-10
6800 2.3125486323321396e-10
6900 2.2206279439228384e-10
7000 2.110315439443033e-10
7100 1.9937262823328695e-10
7200 1.8589439499206013e-10
7300 1.724432843936972e-10
7400 1.5720858682161934e-10
7500 1.4229002539292177e-10
7600 1.2546379561469355e-10
7700 1.0963562792920584e-10
7800 9.24292657496096e-11
7900 7.653412257858638e-11
8000 5.91809857345841e-11
8100 4.315154117728144e-11
8200 2.4793692335497087e-11
8300 7.2019168444719955e-12
8400 0.0
8500 0.0
8600 0.0
8700 0.0
8800 0.0
8900 0.0
9000 0.0
9100 0.0
9200 0.0
9300 0.0
9400 0.0
9500 0.0
9600 0.0
9700 0.0
9800 0.0
9900 0.0
10000 0.0
10100 0.0
10200 0.0
10300 0.0
10400 0.0
10500 0.0
10600 0.0
10700 0.0
10800 0.0
10900 0.0
11000 0.0
11100 0.0
11200 0.0
11300 0.0
11400 0.0
11500 0.0
11600 0.0
11700 0.0
11800 0.0
11900 0.0
12000 0.0
12100 0.0
12200 0.0
12300 0.0
12400 0.0
12500 0.0
12600 0.0
12700 0.0
12800 0.0
12900 0.0
13000 0.0
13100 0.0
13200 0.0
13300 0.0
13400 0.0
13500 0.0
13600 0.0
13700 0.0
13800 0.0
13900 0.0
14000 0.0
14100 0.0
14200 0.0
14300 0.0
14400 0.0
14500 0.0
14600 0.0
14700 0.0
14800 0.0
14900 0.0
15000 0.0
