
# Total neutron yield = 0.0  n/decay
	 f19 0.0
# Integral of spectrum = 2.1378844984906395e-08  n/decay
100 0.0
200 0.0
300 0.0
400 0.0
500 0.0
600 0.0
700 0.0
800 0.0
900 0.0
1000 0.0
1100 0.0
1200 0.0
1300 0.0
1400 0.0
1500 0.0
1600 0.0
1700 0.0
1800 0.0
1900 0.0
2000 0.0
2100 0.0
2200 0.0
2300 0.0
2400 0.0
2500 0.0
2600 0.0
2700 0.0
2800 0.0
2900 0.0
3000 0.0
3100 0.0
3200 0.0
3300 0.0
3400 0.0
3500 0.0
3600 0.0
3700 0.0
3800 0.0
3900 0.0
4000 0.0
4100 0.0
4200 0.0
4300 8.267261858359699e-13
4400 9.205723803728336e-12
4500 1.1249068782844077e-11
4600 1.0815049343730074e-11
4700 1.0427087235790057e-11
4800 1.0080095449605334e-11
4900 9.76966778019566e-12
5000 9.492022316885771e-12
5100 9.243864427040982e-12
5200 9.02226181803617e-12
5300 8.824678515008878e-12
5400 8.648913103144823e-12
5500 8.492909775299337e-12
5600 8.35493980739711e-12
5700 8.233424677668157e-12
5800 8.126970569752601e-12
5900 8.034336423882848e-12
6000 7.954397787057882e-12
6100 7.886177204532176e-12
6200 7.828785092834278e-12
6300 7.78139833491741e-12
6400 7.743319763227291e-12
6500 7.713918899920076e-12
6600 7.692602829008282e-12
6700 6.780120493028656e-12
6800 3.5599894286916805e-12
6900 0.0
7000 0.0
7100 0.0
7200 0.0
7300 0.0
7400 0.0
7500 0.0
7600 0.0
7700 0.0
7800 0.0
7900 0.0
8000 0.0
8100 0.0
8200 0.0
8300 0.0
8400 0.0
8500 0.0
8600 0.0
8700 0.0
8800 0.0
8900 0.0
9000 0.0
9100 0.0
9200 0.0
9300 0.0
9400 0.0
9500 0.0
9600 0.0
9700 0.0
9800 0.0
9900 0.0
10000 0.0
10100 0.0
10200 0.0
10300 0.0
10400 0.0
10500 0.0
10600 0.0
10700 0.0
10800 0.0
10900 0.0
11000 0.0
11100 0.0
11200 0.0
11300 0.0
11400 0.0
11500 0.0
11600 0.0
11700 0.0
11800 0.0
11900 0.0
12000 0.0
12100 0.0
12200 0.0
12300 0.0
12400 0.0
12500 0.0
12600 0.0
12700 0.0
12800 0.0
12900 0.0
13000 0.0
13100 0.0
13200 0.0
13300 0.0
13400 0.0
13500 0.0
13600 0.0
13700 0.0
13800 0.0
13900 0.0
14000 0.0
14100 0.0
14200 0.0
14300 0.0
14400 0.0
14500 0.0
14600 0.0
14700 0.0
14800 0.0
14900 0.0
15000 0.0
