
# Total neutron yield = 0.0  n/decay
	 f19 0.0
# Integral of spectrum = 1.5931164494629455e-06  n/decay
100 0.0
200 0.0
300 0.0
400 0.0
500 0.0
600 0.0
700 0.0
800 0.0
900 0.0
1000 0.0
1100 0.0
1200 0.0
1300 0.0
1400 0.0
1500 0.0
1600 0.0
1700 0.0
1800 0.0
1900 0.0
2000 0.0
2100 0.0
2200 0.0
2300 0.0
2400 0.0
2500 0.0
2600 0.0
2700 0.0
2800 0.0
2900 0.0
3000 0.0
3100 0.0
3200 0.0
3300 0.0
3400 0.0
3500 0.0
3600 0.0
3700 0.0
3800 0.0
3900 0.0
4000 0.0
4100 0.0
4200 0.0
4300 0.0
4400 7.846404295638151e-13
4500 2.1262002319366126e-11
4600 4.6704899914591336e-11
4700 8.281844202532137e-11
4800 1.3086203167187615e-10
4900 1.8794811066292394e-10
5000 2.475122427727328e-10
5100 3.1288955535943296e-10
5200 3.73874717101929e-10
5300 4.4047799429285966e-10
5400 4.994279236588321e-10
5500 5.604725129207114e-10
5600 6.188195178245185e-10
5700 6.693475714457272e-10
5800 7.031249922189412e-10
5900 6.821140482023008e-10
6000 6.638590493129209e-10
6100 6.480759056985685e-10
6200 6.345319236826526e-10
6300 6.230310282056152e-10
6400 6.134033508896091e-10
6500 6.049657763960242e-10
6600 5.882725947445691e-10
6700 5.740887037855606e-10
6800 5.562079397468969e-10
6900 5.36405351819153e-10
7000 5.121801768915641e-10
7100 4.875611179918014e-10
7200 4.5770984169468507e-10
7300 4.2790281923221715e-10
7400 3.9322046230647226e-10
7500 3.61173698917908e-10
7600 3.250819982381422e-10
7700 2.9165660947096335e-10
7800 2.5394155739382177e-10
7900 2.1984140217913985e-10
8000 1.826962205213214e-10
8100 1.4941093639494465e-10
8200 1.1302081420613265e-10
8300 8.028362051540188e-11
8400 4.4662891111411754e-11
8500 9.537500460326154e-12
8600 0.0
8700 0.0
8800 0.0
8900 0.0
9000 0.0
9100 0.0
9200 0.0
9300 0.0
9400 0.0
9500 0.0
9600 0.0
9700 0.0
9800 0.0
9900 0.0
10000 0.0
10100 0.0
10200 0.0
10300 0.0
10400 0.0
10500 0.0
10600 0.0
10700 0.0
10800 0.0
10900 0.0
11000 0.0
11100 0.0
11200 0.0
11300 0.0
11400 0.0
11500 0.0
11600 0.0
11700 0.0
11800 0.0
11900 0.0
12000 0.0
12100 0.0
12200 0.0
12300 0.0
12400 0.0
12500 0.0
12600 0.0
12700 0.0
12800 0.0
12900 0.0
13000 0.0
13100 0.0
13200 0.0
13300 0.0
13400 0.0
13500 0.0
13600 0.0
13700 0.0
13800 0.0
13900 0.0
14000 0.0
14100 0.0
14200 0.0
14300 0.0
14400 0.0
14500 0.0
14600 0.0
14700 0.0
14800 0.0
14900 0.0
15000 0.0
