
# Total neutron yield = 0.0  n/decay
	 o16 0.0
	 o17 0.0
	 o18 0.0
# Integral of spectrum = 9.174324877824187e-09  n/decay
100 0.0
200 0.0
300 0.0
400 0.0
500 0.0
600 0.0
700 0.0
800 0.0
900 0.0
1000 0.0
1100 0.0
1200 0.0
1300 0.0
1400 0.0
1500 0.0
1600 0.0
1700 0.0
1800 0.0
1900 0.0
2000 0.0
2100 0.0
2200 0.0
2300 0.0
2400 0.0
2500 0.0
2600 0.0
2700 0.0
2800 0.0
2900 0.0
3000 0.0
3100 0.0
3200 0.0
3300 0.0
3400 0.0
3500 0.0
3600 0.0
3700 0.0
3800 0.0
3900 0.0
4000 4.8047070860601045e-21
4100 2.067339705227953e-14
4200 2.0398909364515774e-13
4300 1.1139859352915613e-12
4400 2.2560078783194974e-12
4500 3.137332950860408e-12
4600 3.6254890663032933e-12
4700 4.0876493237376245e-12
4800 4.2957964110893375e-12
4900 4.2591895708483885e-12
5000 4.151453631081952e-12
5100 4.032593426914441e-12
5200 3.978801941935467e-12
5300 3.9173402324119015e-12
5400 3.852188283936684e-12
5500 3.8181900347741236e-12
5600 3.8374988647828496e-12
5700 3.878503063163935e-12
5800 3.949324370236325e-12
5900 4.045660234290367e-12
6000 4.095211053210551e-12
6100 3.664784249359199e-12
6200 3.255871045414199e-12
6300 2.9569372389398926e-12
6400 2.5219475802518537e-12
6500 2.2638272692334627e-12
6600 1.875786253460275e-12
6700 1.5333787012389004e-12
6800 1.269439975846719e-12
6900 1.0239967596552982e-12
7000 8.473222079085321e-13
7100 6.754671113061488e-13
7200 5.602305511976839e-13
7300 4.827405750401019e-13
7400 3.8682232455114637e-13
7500 3.104738161069365e-13
7600 2.447173862308545e-13
7700 1.9998961888658123e-13
7800 1.7003630799076304e-13
7900 1.4390598673550772e-13
8000 1.137432155550376e-13
8100 8.834280049650679e-14
8200 7.384274763873156e-14
8300 6.725901266877412e-14
8400 6.059450853211222e-14
8500 5.519412612460956e-14
8600 4.96196652308414e-14
8700 4.4503037397125664e-14
8800 3.86338894355626e-14
8900 3.4410521260300246e-14
9000 3.031891260235793e-14
9100 2.7150995659970286e-14
9200 2.4196671551096023e-14
9300 2.1607087257059704e-14
9400 1.843568466909768e-14
9500 1.5744464028644374e-14
9600 1.257834221988666e-14
9700 9.826548955621646e-15
9800 6.8378606186939565e-15
9900 4.1729976346522774e-15
10000 1.6819606603021133e-15
10100 0.0
10200 0.0
10300 0.0
10400 0.0
10500 0.0
10600 0.0
10700 0.0
10800 0.0
10900 0.0
11000 0.0
11100 0.0
11200 0.0
11300 0.0
11400 0.0
11500 0.0
11600 0.0
11700 0.0
11800 0.0
11900 0.0
12000 0.0
12100 0.0
12200 0.0
12300 0.0
12400 0.0
12500 0.0
12600 0.0
12700 0.0
12800 0.0
12900 0.0
13000 0.0
13100 0.0
13200 0.0
13300 0.0
13400 0.0
13500 0.0
13600 0.0
13700 0.0
13800 0.0
13900 0.0
14000 0.0
14100 0.0
14200 0.0
14300 0.0
14400 0.0
14500 0.0
14600 0.0
14700 0.0
14800 0.0
14900 0.0
15000 0.0
