
# Total neutron yield = 0.0  n/decay
	 f19 0.0
# Integral of spectrum = 2.117953525201507e-08  n/decay
100 0.0
200 0.0
300 0.0
400 0.0
500 0.0
600 0.0
700 0.0
800 0.0
900 0.0
1000 0.0
1100 0.0
1200 0.0
1300 0.0
1400 0.0
1500 0.0
1600 0.0
1700 0.0
1800 0.0
1900 0.0
2000 0.0
2100 0.0
2200 0.0
2300 0.0
2400 0.0
2500 0.0
2600 0.0
2700 0.0
2800 0.0
2900 0.0
3000 0.0
3100 0.0
3200 0.0
3300 0.0
3400 0.0
3500 0.0
3600 0.0
3700 0.0
3800 0.0
3900 0.0
4000 0.0
4100 0.0
4200 0.0
4300 0.0
4400 1.2592131563146672e-12
4500 1.1771333745021085e-11
4600 1.2164345382970851e-11
4700 1.1557776435590545e-11
4800 1.1029610879898805e-11
4900 1.057123538000552e-11
5000 1.0175099289184685e-11
5100 9.834671582424734e-12
5200 9.544221248388307e-12
5300 9.298694829340465e-12
5400 9.093597082308179e-12
5500 8.925034494300808e-12
5600 8.789471040716847e-12
5700 8.683846582646612e-12
5800 8.605362886297134e-12
5900 8.551584316324095e-12
6000 8.520325769922234e-12
6100 8.509613021988431e-12
6200 8.517690151336384e-12
6300 8.542981230486062e-12
6400 8.584066018184985e-12
6500 8.639667313126606e-12
6600 7.375284795595977e-12
6700 3.2498838937279334e-12
6800 1.941018807513145e-16
6900 1.7388543731214353e-16
7000 1.4571664086240002e-16
7100 1.1561201969378197e-16
7200 7.662425890920199e-17
7300 3.605381114283487e-17
7400 0.0
7500 0.0
7600 0.0
7700 0.0
7800 0.0
7900 0.0
8000 0.0
8100 0.0
8200 0.0
8300 0.0
8400 0.0
8500 0.0
8600 0.0
8700 0.0
8800 0.0
8900 0.0
9000 0.0
9100 0.0
9200 0.0
9300 0.0
9400 0.0
9500 0.0
9600 0.0
9700 0.0
9800 0.0
9900 0.0
10000 0.0
10100 0.0
10200 0.0
10300 0.0
10400 0.0
10500 0.0
10600 0.0
10700 0.0
10800 0.0
10900 0.0
11000 0.0
11100 0.0
11200 0.0
11300 0.0
11400 0.0
11500 0.0
11600 0.0
11700 0.0
11800 0.0
11900 0.0
12000 0.0
12100 0.0
12200 0.0
12300 0.0
12400 0.0
12500 0.0
12600 0.0
12700 0.0
12800 0.0
12900 0.0
13000 0.0
13100 0.0
13200 0.0
13300 0.0
13400 0.0
13500 0.0
13600 0.0
13700 0.0
13800 0.0
13900 0.0
14000 0.0
14100 0.0
14200 0.0
14300 0.0
14400 0.0
14500 0.0
14600 0.0
14700 0.0
14800 0.0
14900 0.0
15000 0.0
