
# Total neutron yield = 0.0  n/decay
	 f19 0.0
# Integral of spectrum = 4.128986453816092e-06  n/decay
100 0.0
200 0.0
300 0.0
400 0.0
500 0.0
600 0.0
700 0.0
800 0.0
900 0.0
1000 0.0
1100 0.0
1200 0.0
1300 0.0
1400 0.0
1500 0.0
1600 0.0
1700 0.0
1800 0.0
1900 0.0
2000 0.0
2100 0.0
2200 0.0
2300 0.0
2400 0.0
2500 0.0
2600 0.0
2700 0.0
2800 0.0
2900 0.0
3000 0.0
3100 0.0
3200 0.0
3300 0.0
3400 0.0
3500 0.0
3600 0.0
3700 0.0
3800 0.0
3900 0.0
4000 0.0
4100 0.0
4200 0.0
4300 0.0
4400 0.0
4500 6.660525486770396e-12
4600 1.0034464589547365e-10
4700 2.5150994984911753e-10
4800 4.78914919666509e-10
4900 7.294422070068018e-10
5000 9.833548407626324e-10
5100 1.2683405663114451e-09
5200 1.5371695613274885e-09
5300 1.7139840692724213e-09
5400 1.8149799981187058e-09
5500 1.883587433941364e-09
5600 1.9590764955418062e-09
5700 2.0169672889654787e-09
5800 1.9645937481377762e-09
5900 1.9172973680214605e-09
6000 1.8751052827619745e-09
6100 1.8377746484353144e-09
6200 1.804978713407887e-09
6300 1.7763599916758512e-09
6400 1.7485110184438011e-09
6500 1.697309502130628e-09
6600 1.6156228965013266e-09
6700 1.5289127296519493e-09
6800 1.4131253058345532e-09
6900 1.2920717453046656e-09
7000 1.160731498174267e-09
7100 1.0317057019530764e-09
7200 8.851066462079989e-10
7300 7.45154159849191e-10
7400 5.859638975187166e-10
7500 4.670766129147344e-10
7600 3.59408886390458e-10
7700 2.868529387834394e-10
7800 2.2536057300176368e-10
7900 1.6893834425020648e-10
8000 1.0688580418557911e-10
8100 5.062044522082288e-11
8200 6.160249055571169e-14
8300 6.530627227810668e-16
8400 5.182053330594081e-16
8500 3.9673330852888755e-16
8600 2.635137597790283e-16
8700 1.4325177423047022e-16
8800 0.0
8900 0.0
9000 0.0
9100 0.0
9200 0.0
9300 0.0
9400 0.0
9500 0.0
9600 0.0
9700 0.0
9800 0.0
9900 0.0
10000 0.0
10100 0.0
10200 0.0
10300 0.0
10400 0.0
10500 0.0
10600 0.0
10700 0.0
10800 0.0
10900 0.0
11000 0.0
11100 0.0
11200 0.0
11300 0.0
11400 0.0
11500 0.0
11600 0.0
11700 0.0
11800 0.0
11900 0.0
12000 0.0
12100 0.0
12200 0.0
12300 0.0
12400 0.0
12500 0.0
12600 0.0
12700 0.0
12800 0.0
12900 0.0
13000 0.0
13100 0.0
13200 0.0
13300 0.0
13400 0.0
13500 0.0
13600 0.0
13700 0.0
13800 0.0
13900 0.0
14000 0.0
14100 0.0
14200 0.0
14300 0.0
14400 0.0
14500 0.0
14600 0.0
14700 0.0
14800 0.0
14900 0.0
15000 0.0
