
# Total neutron yield = 0.0  n/decay
	 f19 0.0
# Integral of spectrum = 5.706278525242039e-06  n/decay
100 0.0
200 0.0
300 0.0
400 0.0
500 0.0
600 0.0
700 0.0
800 0.0
900 0.0
1000 0.0
1100 0.0
1200 0.0
1300 0.0
1400 0.0
1500 0.0
1600 0.0
1700 0.0
1800 0.0
1900 0.0
2000 0.0
2100 0.0
2200 0.0
2300 0.0
2400 0.0
2500 0.0
2600 0.0
2700 0.0
2800 0.0
2900 0.0
3000 0.0
3100 0.0
3200 0.0
3300 0.0
3400 0.0
3500 0.0
3600 0.0
3700 0.0
3800 0.0
3900 0.0
4000 0.0
4100 0.0
4200 0.0
4300 0.0
4400 0.0
4500 0.0
4600 6.689057992560543e-11
4700 2.506627815270282e-10
4800 5.698924988754403e-10
4900 9.483382779552931e-10
5000 1.2472938434177278e-09
5100 1.5527056813657468e-09
5200 1.7901360468719309e-09
5300 2.0289456996911903e-09
5400 2.24179238795006e-09
5500 2.4151836080124795e-09
5600 2.5041987712707142e-09
5700 2.5178805416471266e-09
5800 2.5183863653759832e-09
5900 2.5340140775402126e-09
6000 2.555808093887337e-09
6100 2.4926686093929107e-09
6200 2.4466392804479723e-09
6300 2.4222723674883064e-09
6400 2.4022720046490243e-09
6500 2.3575974341849575e-09
6600 2.2728362615088395e-09
6700 2.163167187358376e-09
6800 1.9990783639812697e-09
6900 1.8392716298726024e-09
7000 1.6626186215908098e-09
7100 1.5242438492942279e-09
7200 1.354661638804752e-09
7300 1.2097542891029276e-09
7400 1.0559536793282558e-09
7500 9.160264691627408e-10
7600 7.651707672404624e-10
7700 6.287766578330331e-10
7800 4.778758082250051e-10
7900 3.8211741198535115e-10
8000 2.8389483453500277e-10
8100 2.3407696386810167e-10
8200 1.8228568652776424e-10
8300 1.3504450802799362e-10
8400 8.120974492246093e-11
8500 3.11257356949616e-11
8600 1.4676681495111534e-14
8700 5.085863646755168e-16
8800 4.0350266366239903e-16
8900 3.081423626201141e-16
9000 1.9862013081168444e-16
9100 9.654538712824795e-17
9200 0.0
9300 0.0
9400 0.0
9500 0.0
9600 0.0
9700 0.0
9800 0.0
9900 0.0
10000 0.0
10100 0.0
10200 0.0
10300 0.0
10400 0.0
10500 0.0
10600 0.0
10700 0.0
10800 0.0
10900 0.0
11000 0.0
11100 0.0
11200 0.0
11300 0.0
11400 0.0
11500 0.0
11600 0.0
11700 0.0
11800 0.0
11900 0.0
12000 0.0
12100 0.0
12200 0.0
12300 0.0
12400 0.0
12500 0.0
12600 0.0
12700 0.0
12800 0.0
12900 0.0
13000 0.0
13100 0.0
13200 0.0
13300 0.0
13400 0.0
13500 0.0
13600 0.0
13700 0.0
13800 0.0
13900 0.0
14000 0.0
14100 0.0
14200 0.0
14300 0.0
14400 0.0
14500 0.0
14600 0.0
14700 0.0
14800 0.0
14900 0.0
15000 0.0
